accx, accy, accz, magx, magy, magz, roll, pitch, yaw
-0.033977, -0.008540, 0.995459, -0.307860, 0.225260, -0.703640, -0.008579, 0.034117, -1.004563
-0.030622, -0.009455, 0.995764, -0.310660, 0.228200, -0.700980, -0.009495, 0.030741, -1.002697
-0.031293, -0.009272, 0.995032, -0.311080, 0.226660, -0.696360, -0.009318, 0.031438, -1.006567
-0.032025, -0.009211, 0.992714, -0.317940, 0.227780, -0.693980, -0.009278, 0.032247, -1.014582
-0.031659, -0.009821, 0.996069, -0.317940, 0.227780, -0.693980, -0.009859, 0.031772, -1.014582
-0.033184, -0.008784, 0.998753, -0.314440, 0.229040, -0.690900, -0.008795, 0.033212, -1.006709
-0.031049, -0.008601, 0.993324, -0.313880, 0.227360, -0.692020, -0.008659, 0.031246, -1.009362
-0.029280, -0.009211, 0.996374, -0.311220, 0.230860, -0.693140, -0.009244, 0.029377, -0.998020
-0.030256, -0.010797, 0.995032, -0.309680, 0.223020, -0.690900, -0.010850, 0.030396, -1.012116
-0.030500, -0.009943, 0.995520, -0.309680, 0.223020, -0.690900, -0.009987, 0.030626, -1.012116
-0.029951, -0.008357, 0.993019, -0.315980, 0.222740, -0.696780, -0.008416, 0.030151, -1.022227
-0.030500, -0.009150, 0.996191, -0.311640, 0.221620, -0.692440, -0.009185, 0.030606, -1.018082
-0.032879, -0.010187, 0.997411, -0.311640, 0.219800, -0.692440, -0.010213, 0.032951, -1.021971
-0.031903, -0.007930, 0.994117, -0.313880, 0.221620, -0.688940, -0.007977, 0.032080, -1.021461
-0.031842, -0.009394, 0.994910, -0.313880, 0.221620, -0.688940, -0.009442, 0.031993, -1.021461
-0.031232, -0.008662, 0.993507, -0.307860, 0.228060, -0.687260, -0.008718, 0.031425, -0.998665
-0.031049, -0.007930, 0.996557, -0.316680, 0.226520, -0.689640, -0.007957, 0.031145, -1.015328
-0.031171, -0.009394, 0.993080, -0.314860, 0.225400, -0.695940, -0.009459, 0.031377, -1.014946
-0.030439, -0.007991, 0.995032, -0.313460, 0.224280, -0.692020, -0.008031, 0.030580, -1.015195
-0.030439, -0.010126, 0.991860, -0.313460, 0.224280, -0.692020, -0.010209, 0.030678, -1.015195
-0.031598, -0.008174, 0.996008, -0.316820, 0.226380, -0.693700, -0.008207, 0.031713, -1.015830
-0.032879, -0.009516, 0.994971, -0.310240, 0.230720, -0.689220, -0.009564, 0.033032, -0.996801
-0.032025, -0.008052, 0.996313, -0.316120, 0.228900, -0.691460, -0.008082, 0.032131, -1.009533
-0.031110, -0.008784, 0.992897, -0.315700, 0.227500, -0.696780, -0.008847, 0.031321, -1.011814
-0.030622, -0.009760, 0.996252, -0.315700, 0.227500, -0.696780, -0.009796, 0.030726, -1.011814
-0.032818, -0.010004, 0.996679, -0.310520, 0.231700, -0.696640, -0.010037, 0.032914, -0.995202
-0.031659, -0.006649, 0.994300, -0.316400, 0.220220, -0.697620, -0.006687, 0.031829, -1.028198
-0.028792, -0.008479, 0.995276, -0.313320, 0.225540, -0.694540, -0.008519, 0.028920, -1.012329
-0.032635, -0.007991, 0.993202, -0.312480, 0.224700, -0.694820, -0.008046, 0.032845, -1.012825
-0.033245, -0.010675, 0.995520, -0.313740, 0.224700, -0.692580, -0.010723, 0.033380, -1.014732
-0.028182, -0.011834, 0.996313, -0.313740, 0.225120, -0.692580, -0.011877, 0.028277, -1.013847
-0.030500, -0.007991, 0.995581, -0.306880, 0.224420, -0.698740, -0.008026, 0.030625, -1.004824
-0.032818, -0.009821, 0.995947, -0.312480, 0.224700, -0.691600, -0.009861, 0.032938, -1.012825
-0.031110, -0.010309, 0.994910, -0.307440, 0.222740, -0.691600, -0.010361, 0.031257, -1.009266
-0.046726, -0.009760, 0.996862, -0.307440, 0.228760, -0.694260, -0.009790, 0.046837, -0.996545
-0.031415, -0.007991, 0.996679, -0.307440, 0.228760, -0.694260, -0.008017, 0.031508, -0.996545
-0.030012, -0.008784, 0.996496, -0.314020, 0.223300, -0.693980, -0.008815, 0.030107, -1.018108
-0.030744, -0.007198, 0.992897, -0.309680, 0.230440, -0.697060, -0.007249, 0.030953, -0.996517
-0.030927, -0.008174, 0.993690, -0.309120, 0.226240, -0.694680, -0.008226, 0.031112, -1.004440
-0.030683, -0.008113, 0.995459, -0.313740, 0.224420, -0.693560, -0.008150, 0.030812, -1.015322
-0.030805, -0.008601, 0.993812, -0.313740, 0.224420, -0.693560, -0.008654, 0.030986, -1.015322
-0.031720, -0.008235, 0.997655, -0.313040, 0.228200, -0.693840, -0.008254, 0.031783, -1.006334
-0.032574, -0.008845, 0.995825, -0.309960, 0.224560, -0.687680, -0.008882, 0.032698, -1.009279
-0.034404, -0.008784, 0.996435, -0.309820, 0.223020, -0.694400, -0.008815, 0.034512, -1.012330
-0.031476, -0.008235, 0.995398, -0.310660, 0.227500, -0.691460, -0.008273, 0.031610, -1.004162
-0.031354, -0.008906, 0.995337, -0.310660, 0.227500, -0.691460, -0.008947, 0.031489, -1.004162
-0.033184, -0.006588, 0.994544, -0.309260, 0.222740, -0.690060, -0.006624, 0.033353, -1.012068
-0.033367, -0.007869, 0.996435, -0.313880, 0.225260, -0.688240, -0.007897, 0.033473, -1.013764
-0.029829, -0.007991, 0.996557, -0.312340, 0.228340, -0.691180, -0.008018, 0.029922, -1.004976
-0.031842, -0.009089, 0.994056, -0.315000, 0.224980, -0.694400, -0.009143, 0.032020, -1.016039
-0.030256, -0.008235, 0.995764, -0.315000, 0.224980, -0.694400, -0.008270, 0.030374, -1.016039
-0.031903, -0.010187, 0.993751, -0.310800, 0.227220, -0.688940, -0.010251, 0.032091, -1.004964
-0.029890, -0.008418, 0.995642, -0.314020, 0.224840, -0.693140, -0.008455, 0.030011, -1.014859
-0.033306, -0.007747, 0.993873, -0.309260, 0.227220, -0.693560, -0.007795, 0.033498, -1.002595
-0.028792, -0.007625, 0.996069, -0.311920, 0.224840, -0.692020, -0.007655, 0.028897, -1.011680
-0.032330, -0.009028, 0.995459, -0.311920, 0.224840, -0.692020, -0.009069, 0.032465, -1.011680
-0.033489, -0.008174, 0.994178, -0.311360, 0.222600, -0.687820, -0.008222, 0.033671, -1.015571
-0.031171, -0.008906, 0.994788, -0.306740, 0.228760, -0.695660, -0.008952, 0.031323, -0.995453
-0.031293, -0.008357, 0.996923, -0.308140, 0.223860, -0.695520, -0.008383, 0.031378, -1.007963
-0.033550, -0.007076, 0.994849, -0.314440, 0.219520, -0.693140, -0.007113, 0.033710, -1.026776
-0.030317, -0.007869, 0.993812, -0.314440, 0.219520, -0.693140, -0.007918, 0.030495, -1.026776
-0.031293, -0.011102, 0.994056, -0.307860, 0.224140, -0.689500, -0.011168, 0.031468, -1.006936
-0.030683, -0.008235, 0.995459, -0.311500, 0.221200, -0.693560, -0.008272, 0.030812, -1.018766
-0.028365, -0.009821, 0.995093, -0.311080, 0.224560, -0.696920, -0.009869, 0.028496, -1.010991
-0.032330, -0.006771, 0.996801, -0.308980, 0.220360, -0.694400, -0.006793, 0.032422, -1.016726
-0.032757, -0.008784, 0.997716, -0.308980, 0.220360, -0.694400, -0.008804, 0.032819, -1.016726
-0.033062, -0.007381, 0.994117, -0.310240, 0.225540, -0.693700, -0.007425, 0.033244, -1.007638
-0.030744, -0.006832, 0.992592, -0.308840, 0.227360, -0.686140, -0.006883, 0.030963, -1.001653
-0.033184, -0.006954, 0.995581, -0.310800, 0.221060, -0.692860, -0.006985, 0.033318, -1.018002
-0.033306, -0.007564, 0.994788, -0.310380, 0.220360, -0.694680, -0.007603, 0.033467, -1.018861
-0.029890, -0.008052, 0.993690, -0.310380, 0.220360, -0.694680, -0.008103, 0.030070, -1.018861
-0.033184, -0.007564, 0.995337, -0.308140, 0.221900, -0.692160, -0.007599, 0.033326, -1.012139
-0.031415, -0.008784, 0.996496, -0.311080, 0.219800, -0.691040, -0.008815, 0.031514, -1.021124
-0.033123, -0.009638, 0.992226, -0.310380, 0.221760, -0.696080, -0.009713, 0.033369, -1.015869
-0.035075, -0.009211, 0.995459, -0.307160, 0.219520, -0.694960, -0.009253, 0.035219, -1.015738
-0.035075, -0.008723, 0.995154, -0.307160, 0.219520, -0.694960, -0.008765, 0.035230, -1.015738
-0.031598, -0.008235, 0.996191, -0.314860, 0.222320, -0.700280, -0.008266, 0.031707, -1.021444
-0.035197, -0.007930, 0.993812, -0.309540, 0.222880, -0.693420, -0.007979, 0.035400, -1.012199
-0.034282, -0.007015, 0.995520, -0.306180, 0.219240, -0.696080, -0.007046, 0.034422, -1.014830
-0.032574, -0.009760, 0.991982, -0.311220, 0.225400, -0.700420, -0.009839, 0.032824, -1.009432
-0.032818, -0.009821, 0.996557, -0.311220, 0.225400, -0.700420, -0.009855, 0.032918, -1.009432
-0.034648, -0.006283, 0.995581, -0.304780, 0.225400, -0.694540, -0.006311, 0.034787, -0.999467
-0.031842, -0.008174, 0.995093, -0.310940, 0.218680, -0.699020, -0.008214, 0.031987, -1.023318
-0.031049, -0.007808, 0.996069, -0.309260, 0.227780, -0.697060, -0.007839, 0.031160, -1.001420
-0.032086, -0.009150, 0.995642, -0.305480, 0.228200, -0.694960, -0.009190, 0.032214, -0.994654
-0.033550, -0.010248, 0.994178, -0.308560, 0.219240, -0.699300, -0.010308, 0.033732, -1.018490
-0.033062, -0.011041, 0.995520, -0.308560, 0.219240, -0.699300, -0.011090, 0.033197, -1.018490
-0.031659, -0.006771, 0.993446, -0.308000, 0.231980, -0.691320, -0.006816, 0.031856, -0.990712
-0.033306, -0.008906, 0.994178, -0.309120, 0.224280, -0.692440, -0.008958, 0.033487, -1.008582
-0.032025, -0.006832, 0.994971, -0.308280, 0.220920, -0.688660, -0.006866, 0.032175, -1.014452
-0.033123, -0.008052, 0.994666, -0.306180, 0.227780, -0.684740, -0.008095, 0.033287, -0.996634
-0.032635, -0.007442, 0.996923, -0.306180, 0.227780, -0.684740, -0.007465, 0.032723, -0.996634
-0.031903, -0.009028, 0.995947, -0.316540, 0.220500, -0.690900, -0.009064, 0.032021, -1.027810
-0.033245, -0.010492, 0.995093, -0.309820, 0.222320, -0.694540, -0.010543, 0.033395, -1.013820
-0.031415, -0.007747, 0.995520, -0.311920, 0.226380, -0.697900, -0.007782, 0.031545, -1.008438
-0.033489, -0.010004, 0.996374, -0.315000, 0.225540, -0.697060, -0.010040, 0.033597, -1.014862
-0.031842, -0.007930, 0.996374, -0.315000, 0.225540, -0.697060, -0.007959, 0.031946, -1.014862
-0.030744, -0.006954, 0.995093, -0.311080, 0.224840, -0.692720, -0.006988, 0.030885, -1.010400
-0.032086, -0.006649, 0.995215, -0.314720, 0.217140, -0.694680, -0.006681, 0.032228, -1.032299
-0.033794, -0.010187, 0.994544, -0.307580, 0.224700, -0.692300, -0.010243, 0.033965, -1.005315
-0.033794, -0.008784, 0.996496, -0.307300, 0.227640, -0.695800, -0.008815, 0.033899, -0.998676
-0.031781, -0.009821, 0.992104, -0.307300, 0.227640, -0.695800, -0.009899, 0.032021, -0.998676
-0.032269, -0.007015, 0.993751, -0.311780, 0.223580, -0.691460, -0.007059, 0.032460, -1.014130
-0.030927, -0.007869, 0.994422, -0.313040, 0.224840, -0.690060, -0.007913, 0.031089, -1.013379
-0.030805, -0.010797, 0.996374, -0.311780, 0.224140, -0.685580, -0.010836, 0.030905, -1.012945
-0.033001, -0.010675, 0.996740, -0.314300, 0.223440, -0.697340, -0.010710, 0.033095, -1.018233
-0.031537, -0.009638, 0.993751, -0.314300, 0.223440, -0.697340, -0.009698, 0.031723, -1.018233
-0.030744, -0.010004, 0.993080, -0.310100, 0.225260, -0.692580, -0.010073, 0.030947, -1.008014
-0.035441, -0.008906, 0.997594, -0.315700, 0.219100, -0.696360, -0.008927, 0.035510, -1.029549
-0.032269, -0.009333, 0.996252, -0.314020, 0.227640, -0.695940, -0.009368, 0.032378, -1.008989
-0.034099, -0.009577, 0.997289, -0.308700, 0.227080, -0.700000, -0.009603, 0.034177, -1.002024
-0.031781, -0.009211, 0.996923, -0.308700, 0.227080, -0.700000, -0.009239, 0.031867, -1.002024
-0.033550, -0.010065, 0.993507, -0.313040, 0.221200, -0.695940, -0.010130, 0.033755, -1.021092
-0.032635, -0.010248, 0.994239, -0.308280, 0.225260, -0.694120, -0.010307, 0.032811, -1.005212
-0.033245, -0.008540, 0.995337, -0.315700, 0.225260, -0.692440, -0.008580, 0.033387, -1.016500
-0.034831, -0.009943, 0.995337, -0.313040, 0.223160, -0.697620, -0.009989, 0.034978, -1.016928
-0.032147, -0.010004, 0.994605, -0.313040, 0.223160, -0.697620, -0.010058, 0.032308, -1.016928
-0.035563, -0.010370, 0.996069, -0.308980, 0.226520, -0.695520, -0.010411, 0.035686, -1.003635
-0.032940, -0.008906, 0.996374, -0.313040, 0.219240, -0.698460, -0.008938, 0.033047, -1.025280
-0.030561, -0.010797, 0.996679, -0.311220, 0.227640, -0.702940, -0.010833, 0.030651, -1.004727
-0.034770, -0.010431, 0.995764, -0.308840, 0.226940, -0.691880, -0.010475, 0.034902, -1.002535
-0.035563, -0.009577, 0.994117, -0.308840, 0.226940, -0.691880, -0.009633, 0.035757, -1.002535
-0.034465, -0.010309, 0.994117, -0.312200, 0.218960, -0.699860, -0.010370, 0.034653, -1.024618
-0.033794, -0.010675, 0.996496, -0.309260, 0.221620, -0.697340, -0.010712, 0.033898, -1.014457
-0.034099, -0.009089, 0.995886, -0.310100, 0.221480, -0.698740, -0.009126, 0.034225, -1.016039
-0.031354, -0.009577, 0.994422, -0.307580, 0.222460, -0.697620, -0.009630, 0.031518, -1.010080
-0.032025, -0.010858, 0.996069, -0.307580, 0.222460, -0.697620, -0.010900, 0.032138, -1.010080
-0.035685, -0.010431, 0.993629, -0.303240, 0.228480, -0.685160, -0.010497, 0.035896, -0.990533
-0.032330, -0.011224, 0.995703, -0.306180, 0.218960, -0.690900, -0.011272, 0.032456, -1.015435
-0.033916, -0.010492, 0.997167, -0.309820, 0.225120, -0.687540, -0.010521, 0.033997, -1.007880
-0.031293, -0.011163, 0.995398, -0.312060, 0.222180, -0.688100, -0.011214, 0.031425, -1.017526
-0.032330, -0.011224, 0.992104, -0.312060, 0.222180, -0.688100, -0.011313, 0.032574, -1.017526
-0.033611, -0.010553, 0.995764, -0.312060, 0.224700, -0.688800, -0.010597, 0.033739, -1.012188
-0.032696, -0.010797, 0.996252, -0.307160, 0.226240, -0.675360, -0.010837, 0.032805, -1.001406
-0.033184, -0.008967, 0.995398, -0.305480, 0.223580, -0.681380, -0.009008, 0.033324, -1.004432
-0.035014, -0.010736, 0.996740, -0.307020, 0.225120, -0.686000, -0.010771, 0.035112, -1.003557
-0.032818, -0.009516, 0.998936, -0.307580, 0.228200, -0.686700, -0.009526, 0.032840, -0.997936
-0.032940, -0.010370, 0.996557, -0.307580, 0.228200, -0.686700, -0.010405, 0.033040, -0.997936
-0.032330, -0.010187, 0.993080, -0.311500, 0.224420, -0.688520, -0.010258, 0.032542, -1.011927
-0.032269, -0.011529, 0.994605, -0.311220, 0.228340, -0.685160, -0.011591, 0.032430, -1.003263
-0.032940, -0.010309, 0.996008, -0.308280, 0.225680, -0.685720, -0.010350, 0.033058, -1.004325
-0.032574, -0.010065, 0.996069, -0.309540, 0.225680, -0.692160, -0.010104, 0.032689, -1.006268
-0.032940, -0.007076, 0.993873, -0.309540, 0.225680, -0.692160, -0.007120, 0.033130, -1.006268
-0.036417, -0.009943, 0.994666, -0.308280, 0.231280, -0.690480, -0.009996, 0.036594, -0.992600
-0.033550, -0.010004, 0.992836, -0.308980, 0.227220, -0.696080, -0.010076, 0.033778, -1.002163
-0.033184, -0.009211, 0.993141, -0.305340, 0.227360, -0.690900, -0.009274, 0.033399, -0.996202
-0.033001, -0.011285, 0.993141, -0.301980, 0.227500, -0.686560, -0.011362, 0.033215, -0.990597
-0.033855, -0.011224, 0.995825, -0.301980, 0.227500, -0.686560, -0.011271, 0.033982, -0.990597
-0.031476, -0.010919, 0.993324, -0.308980, 0.217840, -0.687540, -0.010992, 0.031675, -1.022153
-0.034160, -0.011590, 0.995947, -0.304920, 0.226240, -0.687680, -0.011637, 0.034283, -0.997907
-0.035014, -0.008296, 0.997594, -0.307860, 0.222180, -0.689780, -0.008316, 0.035083, -1.011110
-0.031293, -0.011468, 0.994666, -0.310660, 0.222600, -0.693700, -0.011529, 0.031448, -1.014506
-0.032757, -0.010004, 0.995825, -0.310660, 0.222600, -0.693700, -0.010046, 0.032881, -1.014506
-0.032330, -0.010065, 0.995703, -0.305620, 0.225960, -0.691040, -0.010108, 0.032456, -0.999596
-0.034892, -0.010858, 0.993080, -0.309260, 0.222040, -0.689920, -0.010933, 0.035119, -1.013560
-0.033977, -0.011163, 0.995764, -0.308980, 0.223160, -0.692020, -0.011210, 0.034106, -1.010745
-0.035075, -0.010065, 0.993995, -0.305340, 0.220220, -0.692160, -0.010125, 0.035270, -1.011414
-0.034343, -0.010614, 0.994422, -0.305340, 0.220220, -0.692160, -0.010673, 0.034520, -1.011414
-0.033245, -0.010736, 0.995703, -0.308280, 0.219520, -0.692440, -0.010782, 0.033374, -1.017459
-0.034953, -0.012871, 0.995093, -0.305340, 0.224280, -0.690480, -0.012934, 0.035108, -1.002723
-0.033794, -0.009089, 0.994239, -0.308140, 0.222740, -0.691600, -0.009141, 0.033975, -1.010347
-0.034831, -0.010980, 0.992043, -0.302820, 0.220640, -0.695240, -0.011068, 0.035094, -1.006571
-0.036722, -0.012261, 0.996618, -0.302820, 0.220640, -0.695240, -0.012302, 0.036827, -1.006571
-0.034160, -0.011834, 0.996435, -0.299320, 0.225540, -0.698320, -0.011876, 0.034266, -0.990504
-0.035319, -0.010065, 0.996496, -0.302120, 0.219100, -0.694260, -0.010100, 0.035427, -1.008801
-0.034709, -0.010431, 0.993873, -0.299740, 0.223440, -0.694120, -0.010495, 0.034907, -0.995666
-0.033672, -0.011590, 0.997594, -0.296940, 0.220500, -0.693420, -0.011617, 0.033738, -0.997514
-0.034221, -0.012444, 0.992958, -0.296940, 0.220500, -0.693420, -0.012532, 0.034447, -0.997514
-0.035380, -0.011285, 0.996069, -0.301840, 0.216160, -0.692160, -0.011329, 0.035502, -1.014769
-0.034099, -0.011773, 0.995825, -0.296660, 0.216720, -0.689220, -0.011822, 0.034226, -1.005321
-0.036905, -0.010919, 0.993568, -0.299880, 0.212520, -0.688380, -0.010989, 0.037125, -1.019716
-0.034953, -0.011590, 0.995337, -0.301000, 0.208600, -0.697340, -0.011644, 0.035100, -1.030218
-0.035197, -0.011407, 0.994666, -0.301000, 0.208600, -0.697340, -0.011468, 0.035369, -1.030218
-0.035197, -0.009333, 0.997472, -0.294280, 0.212240, -0.696500, -0.009356, 0.035270, -1.011422
-0.037454, -0.012322, 0.996191, -0.293440, 0.211540, -0.694120, -0.012368, 0.037577, -1.011633
-0.037820, -0.012017, 0.993934, -0.295540, 0.211680, -0.692580, -0.012090, 0.038030, -1.014698
-0.038918, -0.012505, 0.993812, -0.292320, 0.212940, -0.689920, -0.012582, 0.039137, -1.006681
-0.038613, -0.011102, 0.997777, -0.292320, 0.212940, -0.689920, -0.011126, 0.038677, -1.006681
-0.039894, -0.009699, 0.995581, -0.295680, 0.206360, -0.691320, -0.009742, 0.040048, -1.026920
-0.037454, -0.012322, 0.995825, -0.292740, 0.206640, -0.691320, -0.012373, 0.037590, -1.021583
-0.039528, -0.010675, 0.996069, -0.292740, 0.207200, -0.686140, -0.010717, 0.039661, -1.020308
-0.039101, -0.013359, 0.995947, -0.291340, 0.206500, -0.695100, -0.013413, 0.039236, -1.019643
-0.037637, -0.011346, 0.995459, -0.291340, 0.206500, -0.695100, -0.011397, 0.037788, -1.019643
-0.038674, -0.011285, 0.994361, -0.287000, 0.209580, -0.689500, -0.011349, 0.038871, -1.005509
-0.039406, -0.011773, 0.996069, -0.293440, 0.201600, -0.694680, -0.011819, 0.039538, -1.034283
-0.039223, -0.009821, 0.996496, -0.290080, 0.205100, -0.694540, -0.009855, 0.039339, -1.020807
-0.038918, -0.011285, 0.995154, -0.287560, 0.209720, -0.694540, -0.011339, 0.039085, -1.006120
-0.041602, -0.012566, 0.997289, -0.287560, 0.209720, -0.694540, -0.012599, 0.041688, -1.006120
-0.043493, -0.012383, 0.995215, -0.292320, 0.202160, -0.695940, -0.012442, 0.043671, -1.031200
-0.037759, -0.014518, 0.996252, -0.289240, 0.210140, -0.694680, -0.014572, 0.037879, -1.007939
-0.038369, -0.011346, 0.996313, -0.292740, 0.204540, -0.694400, -0.011388, 0.038489, -1.026387
-0.040809, -0.009943, 0.996801, -0.289940, 0.207200, -0.694960, -0.009975, 0.040915, -1.015768
-0.039406, -0.010248, 0.994971, -0.291480, 0.201880, -0.690060, -0.010299, 0.039582, -1.030502
-0.039467, -0.012810, 0.994300, -0.291480, 0.201880, -0.690060, -0.012883, 0.039669, -1.030502
-0.040260, -0.014579, 0.995337, -0.293580, 0.202020, -0.687960, -0.014646, 0.040422, -1.033534
-0.041053, -0.011956, 0.994117, -0.289520, 0.209300, -0.683480, -0.012026, 0.041270, -1.010302
-0.039955, -0.013115, 0.997594, -0.287000, 0.212380, -0.686280, -0.013146, 0.040027, -0.999176
-0.041053, -0.013481, 0.997472, -0.294140, 0.210840, -0.690620, -0.013514, 0.041130, -1.014333
-0.040138, -0.010797, 0.998082, -0.294140, 0.210840, -0.690620, -0.010817, 0.040191, -1.014333
-0.045933, -0.009943, 0.989908, -0.292880, 0.216160, -0.687680, -0.010044, 0.046366, -1.000437
-0.037332, -0.013786, 0.997716, -0.299460, 0.212520, -0.692020, -0.013817, 0.037396, -1.019055
-0.041419, -0.013481, 0.993385, -0.295820, 0.216300, -0.688380, -0.013570, 0.041667, -1.004894
-0.039406, -0.012932, 0.993751, -0.295820, 0.216440, -0.685440, -0.013013, 0.039630, -1.004586
-0.043371, -0.012749, 0.996313, -0.295820, 0.216440, -0.685440, -0.012795, 0.043500, -1.004586
-0.038674, -0.010248, 1.000949, -0.299180, 0.212660, -0.693420, -0.010238, 0.038616, -1.018302
-0.042883, -0.013054, 0.996557, -0.294000, 0.216580, -0.694400, -0.013098, 0.043001, -1.001333
-0.038552, -0.015128, 0.995886, -0.294420, 0.213780, -0.689500, -0.015189, 0.038687, -1.008214
-0.043676, -0.010614, 0.994422, -0.295820, 0.212240, -0.689220, -0.010673, 0.043890, -1.013896
-0.047519, -0.007503, 0.992409, -0.295820, 0.212240, -0.689220, -0.007560, 0.047845, -1.013896
-0.037332, -0.017507, 0.999363, -0.294280, 0.215880, -0.681800, -0.017516, 0.037333, -1.003332
-0.040504, -0.012993, 0.993812, -0.297780, 0.208320, -0.689920, -0.013073, 0.040730, -1.025804
-0.038491, -0.012993, 0.997533, -0.298900, 0.213920, -0.688940, -0.013024, 0.038564, -1.015067
-0.044713, -0.013725, 0.994239, -0.297220, 0.211120, -0.691320, -0.013804, 0.044938, -1.018631
-0.042761, -0.011346, 0.994300, -0.297220, 0.211120, -0.691320, -0.011411, 0.042977, -1.018631
-0.039772, -0.014152, 0.998143, -0.297780, 0.210560, -0.692720, -0.014177, 0.039821, -1.020772
-0.045933, -0.014091, 0.996313, -0.296100, 0.214060, -0.696640, -0.014142, 0.046066, -1.010295
-0.042883, -0.013603, 0.995642, -0.295960, 0.211120, -0.686140, -0.013662, 0.043040, -1.016623
-0.043066, -0.011529, 0.995581, -0.299180, 0.215740, -0.692300, -0.011580, 0.043227, -1.011496
-0.038674, -0.011163, 0.998265, -0.299180, 0.215740, -0.692300, -0.011182, 0.038719, -1.011496
-0.047458, -0.008723, 0.990518, -0.291900, 0.220360, -0.694540, -0.008806, 0.047874, -0.989606
-0.039040, -0.014884, 0.994178, -0.300720, 0.211400, -0.690900, -0.014970, 0.039244, -1.023523
-0.047275, -0.011163, 0.990274, -0.300860, 0.217000, -0.696780, -0.011272, 0.047700, -1.011390
-0.047275, -0.010919, 0.994544, -0.300720, 0.215180, -0.689360, -0.010978, 0.047496, -1.015160
-0.040931, -0.015555, 0.996435, -0.300720, 0.215180, -0.689360, -0.015609, 0.041049, -1.015160
-0.042578, -0.015372, 0.996923, -0.307860, 0.215180, -0.689500, -0.015418, 0.042678, -1.026223
-0.047031, -0.012139, 0.993568, -0.301700, 0.220500, -0.696500, -0.012217, 0.047297, -1.005109
-0.045445, -0.014518, 0.994483, -0.301420, 0.219660, -0.688520, -0.014598, 0.045660, -1.006484
-0.043371, -0.013664, 0.996191, -0.299320, 0.219800, -0.691180, -0.013715, 0.043505, -1.002849
-0.042639, -0.012932, 0.998875, -0.299320, 0.219800, -0.691180, -0.012946, 0.042658, -1.002849
-0.047153, -0.013786, 0.994849, -0.298060, 0.219800, -0.687400, -0.013856, 0.047357, -1.000835
-0.045994, -0.012505, 0.990335, -0.302120, 0.217140, -0.693560, -0.012626, 0.046406, -1.013066
-0.047336, -0.014579, 0.993873, -0.298620, 0.219660, -0.692020, -0.014668, 0.047587, -1.002036
-0.044774, -0.014945, 0.992653, -0.301980, 0.224980, -0.685160, -0.015054, 0.045070, -0.995942
-0.044469, -0.015006, 0.996740, -0.301980, 0.224980, -0.685160, -0.015054, 0.044580, -0.995942
-0.042273, -0.014213, 0.996923, -0.302960, 0.220220, -0.686560, -0.014256, 0.042374, -1.007697
-0.050630, -0.009211, 0.989908, -0.299740, 0.228340, -0.685440, -0.009305, 0.051099, -0.985240
-0.043798, -0.011834, 0.996435, -0.302400, 0.223440, -0.685300, -0.011876, 0.043923, -0.999894
-0.048922, -0.010248, 0.992226, -0.301700, 0.227640, -0.694680, -0.010328, 0.049263, -0.989856
-0.042944, -0.015921, 0.994849, -0.301700, 0.227640, -0.694680, -0.016002, 0.043134, -0.989856
-0.045506, -0.009577, 0.993019, -0.297360, 0.229880, -0.689220, -0.009644, 0.045792, -0.978143
-0.044591, -0.012444, 0.992653, -0.303940, 0.216160, -0.688660, -0.012535, 0.044887, -1.018048
-0.048922, -0.011041, 0.994666, -0.303100, 0.222740, -0.688240, -0.011100, 0.049142, -1.002497
-0.044225, -0.012322, 0.994361, -0.303380, 0.221620, -0.692860, -0.012391, 0.044443, -1.005340
-0.041846, -0.011651, 0.999058, -0.305340, 0.222040, -0.690900, -0.011661, 0.041858, -1.007504
-0.044591, -0.008357, 0.994971, -0.305340, 0.222040, -0.690900, -0.008399, 0.044785, -1.007504
-0.048007, -0.011346, 0.997350, -0.301980, 0.225680, -0.695240, -0.011376, 0.048094, -0.994453
-0.050508, -0.012444, 0.995093, -0.300860, 0.223020, -0.696500, -0.012505, 0.050710, -0.998352
-0.045994, -0.009211, 0.996740, -0.303800, 0.228340, -0.692300, -0.009241, 0.046110, -0.991714
-0.049654, -0.011468, 0.989237, -0.298900, 0.223020, -0.685860, -0.011592, 0.050149, -0.995223
-0.046116, -0.011590, 0.996862, -0.298900, 0.223020, -0.685860, -0.011626, 0.046225, -0.995223
-0.045811, -0.010431, 0.993385, -0.302820, 0.218960, -0.688520, -0.010500, 0.046081, -1.010204
-0.049288, -0.007869, 0.992775, -0.298900, 0.223440, -0.690900, -0.007926, 0.049604, -0.994321
-0.049044, -0.008235, 0.996923, -0.295120, 0.221200, -0.689780, -0.008260, 0.049154, -0.993049
-0.053314, -0.005185, 0.988749, -0.297780, 0.222320, -0.688100, -0.005244, 0.053868, -0.994930
-0.048739, -0.011712, 0.995337, -0.297780, 0.222320, -0.688100, -0.011766, 0.048925, -0.994930
-0.052643, -0.012200, 0.993934, -0.295540, 0.225540, -0.692440, -0.012274, 0.052911, -0.984385
-0.054412, -0.011407, 0.995825, -0.303240, 0.221200, -0.689220, -0.011454, 0.054582, -1.006024
-0.058560, -0.007320, 0.990762, -0.300160, 0.225540, -0.686420, -0.007388, 0.059036, -0.991850
-0.055632, -0.008845, 0.994727, -0.297360, 0.220360, -0.690480, -0.008892, 0.055866, -0.998495
-0.059109, -0.006649, 0.994727, -0.297360, 0.220360, -0.690480, -0.006684, 0.059351, -0.998495
-0.057767, -0.009699, 0.996435, -0.298200, 0.219380, -0.694400, -0.009733, 0.057906, -1.001973
-0.053070, -0.005978, 0.997655, -0.294700, 0.228480, -0.693420, -0.005992, 0.053144, -0.976751
-0.061305, -0.010736, 0.996130, -0.301980, 0.221900, -0.686140, -0.010777, 0.061462, -1.002533
-0.058621, -0.006405, 0.999546, -0.303520, 0.223720, -0.689360, -0.006408, 0.058579, -1.001062
-0.069540, 0.001586, 0.987895, -0.303520, 0.223720, -0.689360, 0.001605, 0.070276, -1.001062
-0.080154, 0.005307, 0.982405, -0.294560, 0.224140, -0.685300, 0.005402, 0.081408, -0.985785
-0.086376, -0.029768, 0.989237, -0.304220, 0.220220, -0.685720, -0.030083, 0.087056, -1.009670
-0.072956, 0.001891, 0.978928, -0.299040, 0.227780, -0.688800, 0.001932, 0.074389, -0.985296
-0.067527, -0.010370, 1.000461, -0.305620, 0.226100, -0.687400, -0.010365, 0.067390, -0.999300
-0.070272, 0.001769, 0.997228, -0.305620, 0.226100, -0.687400, 0.001774, 0.070351, -0.999300
-0.063379, -0.015799, 1.005829, -0.299320, 0.229880, -0.686840, -0.015706, 0.062921, -0.981320
-0.067649, -0.007747, 1.001620, -0.304220, 0.233660, -0.693560, -0.007734, 0.067435, -0.981285
-0.070760, -0.003904, 0.992958, -0.299180, 0.228620, -0.687540, -0.003932, 0.071141, -0.983747
-0.065819, 0.063074, 0.985638, -0.304220, 0.231000, -0.694820, 0.063906, 0.066543, -0.986808
-0.081191, -0.013115, 0.991677, -0.304220, 0.231000, -0.694820, -0.013224, 0.081683, -0.986808
-0.082594, -0.013969, 0.992958, -0.301140, 0.234780, -0.687260, -0.014067, 0.082981, -0.974045
-0.089609, -0.004392, 0.994910, -0.305200, 0.230020, -0.686140, -0.004414, 0.089824, -0.990401
-0.080032, -0.007747, 0.991677, -0.296520, 0.235340, -0.686980, -0.007812, 0.080527, -0.965375
-0.095587, -0.000854, 0.985882, -0.302540, 0.234360, -0.681520, -0.000866, 0.096654, -0.977160
-0.093391, -0.019642, 0.998997, -0.302540, 0.234360, -0.681520, -0.019659, 0.093196, -0.977160
-0.102907, -0.002013, 0.989054, -0.302540, 0.233520, -0.686420, -0.002035, 0.103673, -0.978898
-0.109434, -0.015067, 0.982832, -0.305340, 0.239400, -0.687400, -0.015329, 0.110876, -0.971310
-0.101809, -0.009211, 0.994178, -0.309400, 0.241220, -0.683620, -0.009265, 0.102045, -0.974045
-0.106994, -0.007625, 0.993202, -0.309260, 0.240240, -0.685020, -0.007677, 0.107309, -0.975799
-0.105408, -0.003172, 0.995947, -0.309260, 0.240240, -0.685020, -0.003185, 0.105444, -0.975799
-0.100162, 0.042639, 0.987163, -0.303660, 0.243740, -0.682080, 0.043167, 0.101025, -0.959877
-0.107421, 0.004331, 0.988749, -0.312060, 0.240380, -0.687540, 0.004380, 0.108218, -0.979879
-0.118340, -0.012261, 0.988749, -0.302120, 0.244580, -0.686000, -0.012400, 0.119111, -0.955712
-0.118706, -0.002562, 0.995276, -0.299320, 0.246540, -0.685020, -0.002574, 0.118708, -0.947240
-0.126026, -0.012200, 0.979843, -0.299320, 0.246540, -0.685020, -0.012450, 0.127907, -0.947240
-0.129442, -0.005551, 0.988017, -0.301840, 0.243180, -0.680680, -0.005618, 0.130268, -0.958064
-0.134566, -0.001769, 0.983564, -0.301560, 0.250460, -0.679840, -0.001799, 0.135970, -0.943154
-0.135237, -0.006893, 0.982710, -0.304500, 0.247520, -0.677180, -0.007014, 0.136754, -0.953705
-0.133712, -0.000488, 0.982771, -0.306040, 0.250320, -0.675920, -0.000497, 0.135226, -0.950666
-0.135237, -0.004880, 0.990518, -0.306040, 0.250320, -0.675920, -0.004927, 0.135691, -0.950666
-0.134932, -0.002928, 0.987529, -0.299600, 0.250600, -0.679000, -0.002965, 0.135794, -0.939672
-0.137128, -0.004026, 0.993873, -0.305060, 0.244160, -0.682780, -0.004051, 0.137107, -0.961281
-0.136030, 0.010858, 0.995154, -0.302820, 0.250180, -0.674380, 0.010910, 0.135842, -0.945752
-0.144204, -0.001525, 0.989359, -0.298480, 0.249620, -0.678860, -0.001541, 0.144736, -0.939757
-0.147986, -0.000732, 0.986431, -0.302680, 0.249900, -0.679140, -0.000742, 0.148911, -0.946075
-0.154269, -0.015738, 0.952881, -0.302680, 0.249900, -0.679140, -0.016515, 0.160483, -0.946075
-0.148779, -0.003904, 0.983869, -0.304500, 0.259840, -0.679000, -0.003968, 0.150080, -0.929820
-0.149328, -0.008113, 0.988078, -0.306320, 0.258020, -0.681520, -0.008211, 0.149990, -0.936227
-0.146583, -0.008662, 0.991067, -0.313320, 0.258860, -0.678440, -0.008740, 0.146834, -0.945742
-0.149511, -0.007747, 0.989176, -0.311360, 0.257180, -0.678720, -0.007832, 0.150007, -0.945858
-0.147010, -0.000976, 0.991982, -0.311360, 0.257180, -0.678720, -0.000984, 0.147127, -0.945858
-0.151036, -0.007015, 0.985943, -0.311500, 0.253540, -0.675780, -0.007115, 0.152004, -0.953067
-0.146522, -0.001403, 0.997777, -0.311220, 0.259700, -0.682500, -0.001406, 0.145806, -0.940845
-0.144631, 0.004331, 0.997899, -0.307860, 0.255500, -0.679280, 0.004340, 0.143932, -0.943524
-0.154574, -0.005246, 0.982466, -0.313180, 0.259140, -0.680400, -0.005340, 0.156051, -0.944992
-0.154513, 0.029158, 1.001925, -0.313180, 0.259140, -0.680400, 0.029094, 0.152947, -0.944992
-0.156160, 0.011041, 1.005341, -0.309540, 0.265160, -0.673820, 0.010982, 0.154090, -0.927918
-0.163785, -0.023607, 0.992531, -0.317660, 0.263340, -0.675920, -0.023780, 0.163498, -0.944071
-0.169153, -0.022997, 0.994422, -0.319340, 0.270340, -0.672420, -0.023122, 0.168445, -0.933753
-0.175924, -0.013664, 0.984723, -0.315560, 0.267260, -0.670740, -0.013875, 0.176772, -0.933532
-0.182329, -0.016531, 0.968314, -0.315560, 0.267260, -0.670740, -0.017070, 0.186090, -0.933532
-0.185562, -0.018117, 0.975329, -0.319200, 0.266420, -0.673260, -0.018573, 0.187977, -0.940732
-0.186599, -0.006893, 0.980331, -0.318500, 0.269640, -0.676620, -0.007031, 0.188088, -0.933733
-0.201544, -0.003477, 0.983259, -0.317660, 0.272300, -0.668080, -0.003536, 0.202174, -0.927584
-0.186660, 0.003843, 0.989115, -0.321440, 0.273000, -0.667520, 0.003885, 0.186519, -0.932157
-0.190991, -0.003233, 0.992592, -0.321440, 0.273000, -0.667520, -0.003257, 0.190092, -0.932157
-0.190686, -0.000610, 0.991189, -0.314440, 0.278320, -0.669060, -0.000615, 0.190059, -0.911708
-0.206790, -0.024705, 0.975268, -0.317100, 0.274400, -0.671020, -0.025326, 0.208874, -0.922912
-0.208193, -0.013359, 0.976427, -0.317240, 0.279440, -0.670740, -0.013681, 0.210054, -0.914114
-0.203679, -0.002013, 0.987285, -0.315980, 0.277620, -0.667100, -0.002039, 0.203447, -0.915381
-0.215635, -0.002623, 0.974475, -0.315980, 0.277620, -0.667100, -0.002692, 0.217773, -0.915381
-0.222528, -0.005063, 0.971059, -0.312340, 0.274820, -0.669760, -0.005214, 0.225268, -0.914662
-0.221735, -0.003355, 0.970632, -0.313180, 0.283080, -0.666680, -0.003457, 0.224589, -0.901286
-0.222528, 0.002928, 0.976854, -0.314440, 0.277200, -0.661500, 0.002997, 0.223978, -0.913709
-0.218929, -0.006222, 0.977769, -0.311220, 0.274400, -0.670040, -0.006363, 0.220269, -0.913639
-0.221918, -0.011102, 0.982588, -0.311220, 0.274400, -0.670040, -0.011298, 0.222110, -0.913639
-0.222101, -0.001830, 0.985882, -0.303940, 0.282240, -0.665420, -0.001856, 0.221582, -0.887850
-0.225151, 0.000610, 0.979721, -0.309820, 0.273840, -0.667240, 0.000623, 0.225889, -0.912416
-0.230946, -0.001403, 0.972462, -0.307440, 0.277060, -0.669200, -0.001443, 0.233166, -0.902777
-0.234850, -0.002135, 0.975146, -0.309120, 0.282380, -0.660100, -0.002189, 0.236334, -0.896024
-0.236314, 0.002440, 0.975390, -0.309120, 0.282380, -0.660100, 0.002502, 0.237696, -0.896024
-0.240462, 0.010370, 0.976427, -0.303100, 0.273980, -0.671440, 0.010620, 0.241449, -0.901266
-0.239913, 0.008052, 0.969961, -0.301840, 0.279020, -0.660100, 0.008301, 0.242468, -0.890114
-0.246440, 0.001098, 0.968436, -0.301280, 0.274540, -0.659120, 0.001134, 0.249183, -0.897253
-0.245586, 0.003477, 0.977159, -0.305060, 0.278040, -0.656880, 0.003558, 0.246225, -0.897153
-0.247721, 0.007991, 0.973926, -0.305060, 0.278040, -0.656880, 0.008205, 0.249063, -0.897153
-0.246989, 0.015677, 0.967216, -0.304360, 0.279160, -0.658280, 0.016207, 0.249986, -0.894007
-0.254248, -0.000427, 0.980087, -0.306460, 0.276360, -0.657720, -0.000436, 0.253819, -0.902448
-0.258457, 0.008235, 0.969290, -0.305200, 0.280700, -0.653940, 0.008496, 0.260574, -0.892640
-0.261019, 0.007991, 0.971547, -0.295540, 0.281400, -0.654780, 0.008225, 0.262457, -0.875352
-0.262056, 0.012871, 0.972096, -0.295540, 0.281400, -0.654780, 0.013240, 0.263297, -0.875352
-0.265655, 0.007686, 0.966240, -0.302400, 0.279580, -0.657720, 0.007954, 0.268299, -0.890039
-0.251137, 0.025071, 0.970693, -0.303660, 0.283780, -0.654780, 0.025822, 0.253087, -0.884677
-0.284992, -0.015921, 0.978928, -0.302680, 0.286020, -0.658420, -0.016262, 0.283261, -0.879140
-0.273402, 0.012932, 0.968802, -0.307300, 0.289100, -0.654500, 0.013348, 0.275030, -0.881355
-0.268827, 0.017812, 0.975512, -0.307300, 0.289100, -0.654500, 0.018257, 0.268858, -0.881355
-0.281576, 0.018422, 0.971608, -0.299460, 0.289240, -0.651140, 0.018958, 0.282029, -0.868207
-0.286395, 0.023851, 0.972279, -0.309400, 0.283080, -0.649740, 0.024526, 0.286377, -0.895242
-0.298168, 0.017019, 0.954406, -0.305620, 0.295540, -0.645680, 0.017830, 0.302760, -0.867614
-0.308660, 0.010736, 0.964654, -0.309120, 0.297220, -0.649040, 0.011129, 0.309657, -0.870471
-0.297985, 0.008357, 0.955992, -0.310660, 0.297220, -0.646660, 0.008741, 0.302147, -0.872954
-0.310734, 0.004697, 0.960750, -0.310660, 0.297220, -0.646660, 0.004889, 0.312806, -0.872954
-0.309514, 0.018178, 0.950380, -0.307160, 0.301280, -0.642040, 0.019125, 0.314788, -0.860512
-0.318786, 0.025010, 0.940193, -0.310800, 0.300860, -0.642180, 0.026595, 0.326792, -0.867097
-0.312930, 0.022509, 0.956480, -0.306740, 0.302400, -0.641480, 0.023529, 0.316110, -0.857973
-0.323971, 0.032147, 0.967765, -0.309120, 0.308140, -0.636720, 0.033206, 0.322870, -0.852436
-0.348554, 0.029219, 0.947330, -0.309120, 0.308140, -0.636720, 0.030834, 0.352407, -0.852436
-0.358558, -0.002440, 0.940498, -0.312620, 0.308840, -0.635880, -0.002594, 0.364231, -0.856930
-0.359656, 0.010309, 0.937875, -0.305480, 0.308420, -0.632800, 0.010991, 0.366164, -0.846059
-0.357643, 0.008845, 0.939827, -0.307440, 0.310940, -0.638260, 0.009411, 0.363605, -0.845188
-0.361120, 0.017934, 0.940010, -0.310100, 0.313180, -0.636720, 0.019076, 0.366721, -0.845906
-0.368135, 0.015433, 0.925004, -0.310100, 0.313180, -0.636720, 0.016683, 0.378718, -0.845906
-0.372344, 0.015677, 0.923601, -0.305200, 0.312760, -0.633640, 0.016972, 0.383164, -0.838615
-0.365756, 0.029951, 0.934947, -0.310100, 0.313320, -0.631960, 0.032024, 0.372728, -0.845683
-0.375028, 0.013908, 0.935679, -0.308140, 0.316820, -0.631960, 0.014863, 0.381165, -0.836960
-0.382897, 0.014701, 0.928969, -0.307860, 0.319340, -0.626780, 0.015824, 0.390913, -0.832546
-0.376004, 0.023790, 0.929945, -0.307860, 0.319340, -0.626780, 0.025577, 0.384119, -0.832546
-0.372222, 0.028121, 0.937997, -0.309120, 0.317100, -0.633780, 0.029971, 0.377614, -0.838106
-0.365817, 0.035014, 0.948550, -0.306460, 0.319480, -0.631820, 0.036896, 0.367854, -0.830050
-0.383507, 0.044347, 0.936411, -0.304080, 0.316540, -0.627480, 0.047323, 0.388319, -0.830774
-0.395829, 0.017812, 0.929640, -0.307440, 0.318360, -0.629020, 0.019158, 0.402471, -0.833400
-0.419497, -0.004575, 0.886818, -0.307440, 0.318360, -0.629020, -0.005159, 0.441840, -0.833400
-0.412787, 0.020923, 0.903288, -0.307020, 0.321300, -0.620480, 0.023159, 0.428544, -0.828125
-0.412970, 0.023790, 0.912499, -0.312620, 0.322140, -0.630280, 0.026065, 0.424862, -0.835851
-0.411750, 0.022326, 0.917806, -0.305060, 0.321300, -0.628740, 0.024321, 0.421599, -0.824926
-0.409371, 0.025193, 0.932934, -0.305620, 0.322000, -0.624400, 0.026997, 0.413367, -0.824755
-0.407663, 0.037088, 0.937936, -0.305620, 0.322000, -0.624400, 0.039522, 0.409721, -0.824755
-0.407297, 0.038186, 0.925797, -0.308980, 0.325360, -0.630560, 0.041223, 0.414145, -0.825032
-0.439688, 0.019520, 0.908168, -0.309260, 0.331800, -0.617960, 0.021491, 0.450795, -0.815702
-0.428586, 0.035746, 0.903044, -0.317520, 0.331800, -0.622020, 0.039563, 0.442820, -0.828859
-0.437797, 0.030073, 0.922198, -0.309820, 0.329700, -0.625240, 0.032599, 0.443024, -0.819772
-0.438407, 0.030683, 0.907619, -0.309820, 0.329700, -0.625240, 0.033793, 0.449756, -0.819772
-0.455182, 0.027450, 0.901946, -0.302960, 0.330960, -0.614600, 0.030425, 0.467188, -0.806707
-0.461953, 0.025193, 0.890783, -0.307580, 0.327040, -0.615440, 0.028274, 0.478247, -0.820194
-0.453962, 0.026718, 0.901397, -0.308840, 0.326900, -0.611660, 0.029632, 0.466363, -0.822448
-0.452437, 0.040321, 0.908839, -0.310100, 0.329700, -0.612220, 0.044336, 0.461509, -0.820223
-0.461709, 0.018605, 0.898835, -0.310100, 0.329700, -0.612220, 0.020696, 0.474441, -0.820223
-0.465064, 0.033123, 0.875960, -0.301980, 0.331660, -0.613480, 0.037795, 0.487780, -0.804042
-0.459635, 0.036478, 0.896700, -0.301140, 0.336420, -0.604240, 0.040658, 0.473329, -0.795568
-0.462868, 0.035441, 0.894931, -0.302400, 0.332920, -0.613620, 0.039581, 0.477002, -0.802846
-0.465552, 0.021411, 0.893345, -0.305340, 0.332220, -0.615300, 0.023963, 0.480293, -0.808712
-0.463478, 0.030500, 0.900177, -0.305340, 0.332220, -0.615300, 0.033869, 0.475243, -0.808712
-0.471164, 0.028792, 0.893589, -0.301420, 0.333340, -0.604520, 0.032209, 0.485012, -0.800604
-0.471957, 0.034465, 0.897615, -0.299320, 0.335160, -0.608300, 0.038377, 0.483763, -0.794421
-0.465552, 0.033550, 0.899018, -0.303940, 0.339500, -0.606480, 0.037301, 0.477537, -0.795639
-0.472628, 0.030012, 0.897005, -0.303800, 0.335580, -0.604940, 0.033446, 0.484701, -0.801184
-0.474519, 0.036600, 0.899811, -0.303800, 0.335580, -0.604940, 0.040653, 0.484950, -0.801184
-0.484279, 0.021899, 0.882182, -0.305200, 0.335720, -0.607040, 0.024819, 0.501911, -0.803265
-0.489769, 0.023973, 0.885964, -0.303100, 0.338100, -0.600600, 0.027052, 0.504842, -0.796317
-0.483730, 0.034404, 0.894687, -0.307160, 0.336560, -0.603680, 0.038435, 0.495342, -0.805208
-0.488122, 0.034343, 0.893162, -0.307300, 0.341040, -0.593880, 0.038432, 0.499849, -0.798854
-0.512339, 0.014274, 0.847107, -0.307300, 0.341040, -0.593880, 0.016849, 0.543886, -0.798854
-0.513254, 0.006954, 0.855647, -0.309400, 0.344540, -0.591500, 0.008127, 0.540290, -0.797164
-0.502823, 0.026962, 0.889563, -0.307720, 0.343140, -0.603120, 0.030300, 0.514277, -0.796481
-0.507703, 0.028731, 0.875167, -0.308280, 0.353920, -0.593320, 0.032817, 0.525441, -0.782035
-0.516121, 0.032452, 0.870775, -0.309400, 0.349160, -0.590520, 0.037251, 0.534741, -0.790547
-0.524905, 0.025010, 0.859368, -0.311780, 0.350560, -0.586460, 0.029095, 0.548137, -0.792365
-0.531127, 0.028914, 0.851316, -0.311780, 0.350560, -0.586460, 0.033951, 0.557541, -0.792365
-0.530029, 0.026535, 0.853085, -0.308420, 0.355740, -0.589120, 0.031095, 0.555724, -0.779720
-0.534970, 0.025803, 0.849120, -0.308980, 0.352800, -0.589120, 0.030379, 0.561999, -0.784729
-0.542351, 0.022509, 0.846558, -0.311780, 0.357980, -0.588840, 0.026583, 0.569617, -0.781977
-0.535336, 0.030683, 0.859734, -0.304780, 0.356440, -0.583240, 0.035674, 0.556641, -0.772878
-0.501847, 0.044286, 0.895663, -0.304780, 0.356440, -0.583240, 0.049405, 0.510202, -0.772878
-0.524661, 0.049105, 0.873947, -0.311080, 0.355320, -0.589120, 0.056129, 0.539971, -0.784559
-0.545706, 0.010309, 0.852902, -0.306880, 0.357280, -0.581000, 0.012086, 0.569154, -0.775108
-0.541070, 0.029097, 0.858270, -0.309260, 0.358960, -0.587020, 0.033889, 0.562228, -0.776608
-0.552233, 0.022631, 0.845155, -0.312900, 0.363160, -0.583520, 0.026771, 0.578605, -0.776642
-0.554917, 0.023058, 0.848144, -0.312900, 0.363160, -0.583520, 0.027180, 0.579203, -0.776642
-0.557479, 0.015067, 0.849852, -0.315000, 0.364000, -0.577500, 0.017727, 0.580490, -0.778808
-0.570350, 0.021167, 0.821426, -0.318080, 0.367360, -0.580300, 0.025763, 0.606763, -0.779076
-0.565409, -0.042639, 0.891271, -0.315700, 0.372120, -0.577640, -0.047804, 0.564803, -0.769004
-0.584319, 0.035258, 0.788486, -0.308980, 0.366940, -0.573300, 0.044686, 0.637280, -0.765307
-0.575596, 0.016775, 0.821060, -0.308980, 0.366940, -0.573300, 0.020428, 0.611326, -0.765307
-0.560041, 0.011407, 0.851011, -0.310660, 0.367080, -0.575680, 0.013403, 0.581999, -0.767792
-0.561810, 0.014274, 0.845643, -0.312620, 0.367780, -0.570780, 0.016878, 0.586337, -0.769955
-0.565470, 0.025132, 0.835029, -0.315560, 0.362600, -0.572460, 0.030088, 0.595040, -0.781595
-0.551074, 0.034709, 0.870470, -0.313880, 0.363580, -0.572880, 0.039853, 0.564027, -0.777617
-0.563945, 0.024949, 0.842349, -0.313880, 0.363580, -0.572880, 0.029610, 0.589753, -0.777617
-0.566019, 0.019764, 0.843508, -0.309820, 0.365680, -0.577080, 0.023426, 0.590890, -0.768341
-0.566507, 0.008235, 0.849242, -0.316120, 0.364840, -0.578340, 0.009697, 0.588263, -0.779424
-0.581513, 0.034099, 0.812886, -0.317800, 0.363580, -0.570780, 0.041923, 0.620550, -0.783762
-0.580293, 0.012932, 0.826794, -0.315700, 0.368760, -0.574000, 0.015640, 0.611915, -0.773482
-0.580171, 0.017202, 0.830393, -0.315700, 0.368760, -0.574000, 0.020713, 0.609732, -0.773482
-0.580415, 0.014762, 0.823744, -0.316540, 0.370440, -0.575680, 0.017919, 0.613735, -0.772549
-0.581757, 0.020130, 0.825208, -0.313180, 0.375200, -0.573720, 0.024389, 0.613922, -0.760995
-0.579439, 0.022631, 0.829173, -0.311500, 0.371560, -0.575400, 0.027287, 0.609756, -0.763146
-0.565287, 0.032452, 0.851987, -0.317660, 0.370020, -0.572320, 0.038071, 0.585468, -0.774855
-0.555832, 0.042273, 0.873703, -0.317660, 0.370020, -0.572320, 0.048346, 0.566069, -0.774855
-0.571753, 0.024644, 0.842288, -0.311920, 0.367360, -0.572740, 0.029250, 0.596163, -0.769413
-0.578158, 0.027633, 0.841068, -0.315840, 0.368620, -0.571060, 0.032843, 0.601974, -0.773888
-0.581940, 0.034221, 0.835334, -0.315280, 0.374080, -0.568400, 0.040944, 0.608085, -0.765758
-0.610000, 0.031049, 0.786595, -0.314300, 0.368060, -0.563220, 0.039452, 0.659242, -0.772225
-0.617015, 0.025193, 0.789706, -0.314300, 0.368060, -0.563220, 0.031891, 0.663001, -0.772225
-0.613111, 0.028853, 0.797514, -0.313180, 0.369600, -0.564760, 0.036163, 0.655095, -0.768403
-0.615002, 0.020496, 0.798368, -0.312480, 0.378420, -0.558740, 0.025667, 0.656223, -0.755695
-0.604937, 0.035746, 0.817461, -0.307580, 0.367500, -0.560700, 0.043700, 0.636626, -0.762320
-0.596214, 0.042090, 0.827770, -0.308000, 0.371700, -0.561540, 0.050804, 0.623586, -0.757403
-0.605913, 0.032208, 0.816058, -0.308000, 0.371700, -0.561540, 0.039447, 0.638303, -0.757403
-0.598227, 0.041846, 0.822402, -0.301140, 0.377020, -0.554260, 0.050839, 0.628274, -0.739420
-0.606828, 0.035075, 0.812276, -0.306320, 0.372540, -0.563080, 0.043154, 0.641177, -0.753610
-0.616527, 0.026596, 0.809409, -0.306180, 0.378560, -0.562800, 0.032847, 0.650687, -0.745535
-0.613416, 0.031415, 0.812276, -0.311500, 0.372960, -0.558040, 0.038656, 0.646450, -0.761295
-0.615856, 0.022448, 0.815265, -0.311500, 0.372960, -0.558040, 0.027528, 0.646770, -0.761295
-0.628788, 0.027450, 0.810507, -0.311780, 0.375620, -0.556220, 0.033855, 0.659530, -0.758242
-0.644099, 0.038491, 0.773358, -0.302820, 0.378700, -0.553420, 0.049730, 0.693851, -0.739965
-0.634888, 0.043554, 0.787937, -0.300580, 0.373100, -0.548940, 0.055220, 0.677498, -0.743613
-0.648735, 0.034709, 0.770613, -0.299460, 0.373940, -0.554820, 0.045010, 0.699240, -0.740693
-0.648796, 0.040565, 0.774151, -0.299460, 0.373940, -0.554820, 0.052351, 0.696855, -0.740693
-0.648064, 0.044835, 0.777506, -0.298340, 0.379120, -0.538580, 0.057601, 0.694030, -0.732169
-0.648918, 0.044713, 0.788913, -0.306040, 0.381640, -0.545020, 0.056616, 0.687552, -0.741353
-0.639463, 0.049166, 0.796843, -0.299180, 0.384020, -0.542780, 0.061623, 0.675334, -0.727300
-0.653188, 0.040809, 0.776103, -0.303240, 0.380940, -0.540120, 0.052534, 0.698932, -0.737766
-0.656360, 0.037088, 0.778848, -0.304640, 0.380380, -0.543760, 0.047583, 0.699701, -0.740729
-0.665083, 0.039528, 0.765428, -0.304640, 0.380380, -0.543760, 0.051596, 0.714707, -0.740729
-0.669536, 0.037881, 0.758901, -0.297920, 0.385000, -0.538300, 0.049874, 0.722301, -0.724021
-0.672952, 0.038369, 0.754875, -0.304920, 0.385280, -0.538720, 0.050785, 0.727444, -0.734940
-0.673501, 0.034160, 0.753716, -0.303660, 0.383320, -0.539140, 0.045291, 0.728744, -0.735407
-0.672769, 0.053558, 0.755607, -0.302400, 0.387800, -0.537040, 0.070762, 0.726224, -0.727741
-0.671244, 0.054656, 0.758840, -0.302400, 0.387800, -0.537040, 0.071902, 0.722939, -0.727741
-0.680699, 0.044103, 0.753716, -0.301700, 0.387940, -0.533960, 0.058447, 0.733688, -0.726443
-0.678259, 0.050935, 0.751337, -0.301000, 0.388920, -0.536760, 0.067689, 0.733185, -0.724096
-0.684725, 0.039589, 0.748714, -0.300860, 0.388780, -0.538440, 0.052827, 0.740092, -0.724045
-0.684908, 0.038796, 0.745481, -0.308000, 0.389620, -0.540820, 0.051995, 0.742402, -0.734380
-0.683322, 0.044408, 0.748958, -0.308000, 0.389620, -0.540820, 0.059224, 0.738730, -0.734380
-0.684603, 0.049837, 0.749202, -0.303660, 0.394380, -0.530880, 0.066422, 0.739275, -0.721609
-0.698633, 0.044835, 0.752313, -0.305340, 0.391580, -0.531440, 0.059526, 0.747535, -0.727729
-0.693387, 0.037088, 0.739259, -0.305620, 0.393820, -0.532700, 0.050127, 0.752763, -0.725409
-0.695278, 0.042395, 0.738954, -0.305340, 0.391440, -0.530320, 0.057309, 0.754135, -0.727903
-0.695217, 0.040626, 0.739015, -0.305340, 0.391440, -0.530320, 0.054918, 0.754117, -0.727903
-0.691679, 0.043066, 0.747555, -0.304080, 0.393540, -0.525700, 0.057546, 0.745768, -0.723308
-0.687653, 0.047214, 0.755241, -0.303100, 0.397040, -0.528220, 0.062434, 0.737620, -0.717471
-0.694485, 0.035807, 0.744993, -0.306740, 0.394240, -0.528500, 0.048027, 0.749749, -0.726665
-0.699609, 0.043005, 0.732610, -0.307720, 0.393680, -0.530040, 0.058634, 0.761501, -0.728901
-0.695766, 0.047885, 0.734562, -0.307720, 0.393680, -0.530040, 0.065096, 0.757222, -0.728901
-0.699060, 0.048129, 0.743773, -0.308560, 0.397600, -0.521220, 0.064619, 0.753376, -0.725420
-0.703208, 0.043676, 0.737978, -0.310520, 0.395920, -0.523040, 0.059114, 0.760404, -0.730544
-0.706014, 0.045628, 0.734623, -0.308700, 0.402780, -0.523320, 0.062031, 0.764580, -0.719379
-0.708210, 0.045567, 0.724009, -0.308140, 0.400540, -0.521220, 0.062854, 0.773379, -0.721196
-0.711748, 0.051423, 0.724131, -0.308140, 0.400540, -0.521220, 0.070894, 0.775517, -0.721196
-0.710772, 0.044042, 0.723216, -0.308980, 0.404460, -0.520380, 0.060822, 0.775795, -0.717808
-0.703757, 0.054290, 0.722484, -0.304080, 0.404460, -0.520660, 0.075003, 0.770861, -0.710113
-0.720715, 0.048190, 0.718641, -0.303240, 0.402920, -0.516320, 0.066957, 0.785717, -0.710617
-0.720227, 0.048434, 0.713761, -0.312480, 0.399000, -0.517440, 0.067754, 0.788759, -0.729836
-0.722850, 0.052155, 0.713029, -0.312480, 0.399000, -0.517440, 0.073016, 0.790904, -0.729836
-0.722301, 0.054961, 0.708271, -0.303660, 0.403340, -0.510020, 0.077444, 0.793705, -0.710781
-0.727486, 0.052887, 0.705221, -0.309820, 0.402500, -0.511980, 0.074853, 0.799536, -0.721465
-0.723399, 0.050081, 0.711321, -0.307440, 0.406560, -0.511420, 0.070290, 0.792580, -0.712906
-0.730780, 0.047336, 0.709613, -0.309680, 0.404040, -0.511700, 0.066608, 0.798983, -0.719402
-0.733159, 0.050996, 0.710589, -0.309680, 0.404040, -0.511700, 0.071643, 0.799746, -0.719402
-0.731024, 0.061854, 0.712785, -0.308000, 0.401660, -0.517300, 0.086561, 0.796155, -0.719628
-0.740174, 0.057157, 0.690947, -0.303520, 0.402220, -0.512820, 0.082535, 0.818081, -0.711896
-0.746091, 0.054656, 0.696620, -0.309820, 0.401520, -0.510020, 0.078298, 0.818144, -0.722643
-0.742126, -0.057523, 0.809592, -0.306320, 0.404460, -0.508900, -0.070933, 0.740693, -0.713642
-0.794708, 0.000915, 0.689910, -0.306320, 0.404460, -0.508900, 0.001326, 0.855870, -0.713642
-0.750300, 0.052155, 0.683505, -0.304080, 0.403620, -0.499380, 0.076158, 0.830505, -0.711112
-0.742004, 0.061122, 0.692594, -0.308000, 0.404600, -0.501480, 0.088023, 0.817891, -0.716109
-0.744749, 0.061061, 0.682285, -0.305760, 0.406840, -0.504980, 0.089257, 0.827155, -0.709941
-0.741577, 0.060207, 0.693082, -0.304360, 0.403480, -0.494200, 0.086651, 0.817312, -0.711721
-0.741821, 0.055022, 0.699060, -0.304360, 0.403480, -0.494200, 0.078547, 0.813525, -0.711721
-0.746213, 0.051057, 0.691801, -0.301840, 0.406420, -0.508060, 0.073669, 0.821864, -0.704250
-0.764208, 0.045201, 0.689971, -0.298620, 0.408800, -0.496300, 0.065418, 0.835339, -0.696340
-0.748104, 0.047946, 0.695461, -0.305340, 0.409920, -0.502740, 0.068832, 0.820667, -0.705664
-0.744871, 0.052460, 0.694424, -0.300020, 0.407260, -0.505120, 0.075401, 0.819014, -0.700371
-0.743712, 0.050752, 0.691862, -0.300020, 0.407260, -0.505120, 0.073225, 0.820162, -0.700371
-0.742370, 0.051850, 0.701561, -0.304080, 0.410480, -0.499660, 0.073772, 0.812293, -0.703031
-0.752557, 0.050813, 0.686128, -0.311220, 0.408800, -0.501900, 0.073923, 0.830177, -0.716145
-0.757620, 0.055449, 0.671244, -0.308980, 0.409360, -0.504420, 0.082419, 0.844087, -0.712008
-0.752923, 0.057645, 0.682712, -0.306320, 0.411880, -0.501760, 0.084236, 0.832497, -0.704914
-0.752374, 0.055388, 0.677954, -0.306460, 0.411880, -0.508060, 0.081518, 0.835727, -0.705133
-0.756095, 0.050691, 0.672708, -0.306460, 0.411040, -0.508060, 0.075212, 0.842287, -0.706111
-0.769515, 0.051789, 0.671122, -0.309120, 0.413280, -0.501480, 0.077015, 0.852120, -0.707649
-0.762317, 0.048983, 0.673989, -0.309400, 0.415520, -0.504560, 0.072549, 0.845510, -0.705492
-0.757986, 0.053924, 0.674416, -0.306880, 0.415800, -0.500920, 0.079787, 0.842092, -0.701257
-0.757925, 0.045445, 0.689971, -0.306600, 0.416640, -0.492660, 0.065770, 0.831219, -0.699857
-0.756827, 0.058682, 0.676368, -0.306600, 0.416640, -0.492660, 0.086544, 0.839615, -0.699857
-0.761036, 0.057462, 0.673684, -0.306460, 0.413420, -0.503720, 0.085089, 0.844408, -0.703347
-0.758840, 0.058194, 0.676429, -0.306040, 0.413140, -0.496720, 0.085820, 0.840922, -0.703015
-0.756949, 0.055022, 0.681492, -0.306600, 0.415100, -0.499520, 0.080563, 0.836192, -0.701626
-0.762866, 0.055876, 0.677588, -0.302540, 0.416500, -0.504980, 0.082277, 0.842848, -0.693666
-0.757986, 0.057401, 0.670207, -0.302540, 0.416500, -0.504980, 0.085438, 0.844969, -0.693666
-0.761219, 0.068503, 0.668621, -0.302400, 0.411040, -0.495320, 0.102098, 0.847479, -0.699733
-0.756522, 0.076738, 0.664717, -0.301560, 0.411740, -0.501760, 0.114936, 0.846620, -0.697594
-0.757620, 0.066429, 0.675819, -0.297500, 0.413140, -0.499380, 0.097979, 0.840014, -0.689535
-0.757742, 0.059536, 0.677832, -0.298760, 0.414680, -0.500220, 0.087608, 0.839095, -0.689775
-0.756949, 0.057706, 0.685152, -0.298760, 0.414680, -0.500220, 0.084025, 0.833385, -0.689775
-0.756217, 0.056913, 0.681614, -0.301700, 0.412020, -0.505540, 0.083304, 0.835510, -0.697491
-0.753045, 0.055266, 0.680760, -0.300160, 0.412860, -0.501340, 0.081005, 0.834136, -0.694085
-0.758108, 0.056059, 0.677222, -0.301000, 0.409640, -0.496440, 0.082590, 0.839995, -0.699146
-0.755851, 0.056364, 0.677832, -0.303940, 0.411180, -0.504280, 0.082962, 0.838050, -0.701996
-0.756034, 0.060695, 0.678198, -0.303940, 0.411180, -0.504280, 0.089257, 0.837632, -0.701996
-0.755058, 0.065209, 0.676307, -0.303660, 0.414400, -0.499520, 0.096122, 0.838061, -0.697832
-0.753045, 0.062220, 0.684115, -0.304360, 0.412440, -0.502740, 0.090700, 0.831274, -0.701194
-0.758535, 0.061854, 0.675575, -0.304920, 0.416640, -0.502600, 0.091303, 0.841108, -0.697237
-0.759206, 0.053558, 0.670085, -0.304220, 0.415240, -0.499240, 0.079758, 0.846091, -0.697745
-0.760792, 0.055144, 0.672891, -0.304220, 0.415240, -0.499240, 0.081768, 0.844972, -0.697745
-0.756888, 0.056425, 0.678869, -0.305760, 0.416780, -0.505260, 0.082926, 0.837973, -0.698388
-0.750117, 0.054534, 0.687897, -0.306460, 0.414960, -0.500640, 0.079111, 0.827079, -0.701569
-0.751215, 0.057950, 0.682773, -0.306880, 0.414400, -0.501480, 0.084672, 0.831304, -0.702869
-0.752313, 0.051240, 0.681492, -0.306320, 0.417900, -0.505400, 0.075047, 0.833349, -0.697981
-0.755241, 0.057279, 0.680333, -0.306320, 0.417900, -0.505400, 0.083995, 0.835774, -0.697981
-0.756827, 0.051667, 0.673745, -0.307440, 0.414960, -0.500500, 0.076536, 0.841953, -0.703095
-0.757803, 0.052399, 0.664290, -0.311500, 0.418180, -0.503860, 0.078717, 0.849523, -0.705675
-0.751215, 0.056181, 0.672342, -0.307020, 0.417760, -0.505540, 0.083366, 0.839018, -0.699229
-0.746152, 0.050325, 0.676734, -0.309540, 0.419720, -0.502040, 0.074228, 0.832774, -0.700897
-0.741089, 0.051789, 0.687470, -0.309540, 0.419720, -0.502040, 0.075191, 0.821503, -0.700897
-0.734928, 0.035197, 0.689544, -0.306600, 0.414260, -0.513100, 0.051000, 0.816598, -0.702594
-0.727730, 0.043493, 0.703025, -0.310100, 0.416640, -0.507920, 0.061787, 0.801709, -0.705285
-0.712419, 0.056059, 0.720471, -0.312200, 0.411460, -0.512260, 0.077652, 0.778270, -0.714535
-0.707478, 0.041663, 0.729865, -0.309820, 0.414120, -0.526120, 0.057021, 0.769011, -0.707760
-0.705282, 0.038491, 0.748897, -0.309820, 0.414120, -0.526120, 0.051352, 0.754756, -0.707760
-0.686311, 0.041846, 0.742553, -0.309400, 0.410620, -0.522620, 0.056295, 0.745267, -0.711184
-0.678808, 0.036234, 0.752313, -0.313040, 0.408380, -0.530320, 0.048126, 0.733505, -0.719453
-0.675270, 0.033611, 0.763415, -0.313600, 0.407820, -0.525420, 0.043999, 0.723726, -0.720980
-0.657580, 0.019520, 0.774212, -0.318780, 0.403900, -0.534380, 0.025207, 0.703962, -0.733604
-0.657092, 0.028060, 0.773419, -0.318780, 0.403900, -0.534380, 0.036265, 0.703934, -0.733604
-0.657824, 0.011163, 0.773724, -0.315840, 0.405860, -0.541520, 0.014427, 0.704562, -0.726756
-0.655384, 0.009455, 0.787571, -0.317100, 0.404880, -0.538440, 0.012005, 0.694009, -0.729860
-0.639280, 0.020557, 0.787937, -0.316960, 0.398020, -0.542640, 0.026084, 0.681447, -0.737956
-0.631472, 0.020313, 0.785741, -0.319200, 0.401100, -0.543200, 0.025846, 0.676808, -0.737632
-0.623908, 0.015311, 0.796782, -0.319200, 0.401100, -0.543200, 0.019214, 0.664221, -0.737632
-0.615368, 0.017202, 0.815387, -0.320600, 0.399840, -0.545440, 0.021094, 0.646392, -0.741300
-0.608658, 0.013420, 0.820084, -0.322000, 0.398580, -0.548940, 0.016363, 0.638420, -0.744970
-0.604449, 0.020679, 0.820755, -0.321860, 0.393680, -0.553140, 0.025190, 0.634624, -0.750811
-0.589199, 0.030744, 0.834480, -0.323680, 0.395780, -0.555240, 0.036825, 0.614467, -0.750967
-0.591822, 0.014579, 0.835517, -0.323680, 0.395780, -0.555240, 0.017447, 0.616223, -0.750967
-0.584197, 0.016531, 0.819718, -0.326760, 0.390320, -0.559160, 0.020164, 0.619090, -0.762442
-0.585722, 0.002501, 0.830576, -0.329420, 0.389760, -0.551320, 0.003011, 0.614205, -0.767143
-0.587247, 0.006649, 0.819779, -0.326900, 0.388640, -0.562800, 0.008111, 0.621598, -0.764777
-0.582245, 0.009211, 0.820145, -0.327740, 0.391440, -0.558880, 0.011230, 0.617329, -0.762505
-0.581086, 0.001220, 0.820023, -0.329700, 0.390180, -0.557060, 0.001488, 0.616488, -0.767031
-0.580781, -0.001281, 0.829966, -0.329700, 0.390180, -0.557060, -0.001543, 0.610568, -0.767031
-0.565226, 0.005307, 0.833260, -0.333200, 0.385840, -0.567560, 0.006369, 0.596025, -0.777770
-0.555405, 0.009638, 0.843081, -0.326760, 0.384440, -0.569800, 0.011431, 0.582493, -0.769923
-0.554856, 0.005551, 0.843508, -0.327740, 0.377160, -0.574980, 0.006581, 0.581826, -0.780853
-0.548512, 0.004392, 0.847900, -0.328160, 0.382900, -0.577360, 0.005180, 0.574191, -0.774016
-0.533140, 0.009272, 0.844789, -0.328160, 0.382900, -0.577360, 0.010975, 0.562941, -0.774016
-0.530090, -0.000122, 0.846436, -0.328440, 0.380240, -0.576380, -0.000144, 0.559506, -0.777884
-0.523807, -0.002928, 0.857111, -0.333340, 0.381500, -0.579460, -0.003416, 0.548561, -0.783578
-0.508862, 0.000427, 0.871263, -0.329000, 0.377440, -0.584220, 0.000490, 0.528610, -0.782386
-0.503250, -0.008113, 0.869128, -0.330960, 0.371420, -0.585200, -0.009334, 0.524838, -0.793307
-0.501420, 0.007991, 0.868152, -0.330960, 0.371420, -0.585200, 0.009204, 0.523746, -0.793307
-0.488915, -0.048251, 0.889563, -0.331940, 0.368480, -0.599060, -0.054188, 0.501926, -0.798727
-0.466833, -0.005917, 0.902678, -0.329280, 0.365680, -0.594580, -0.006555, 0.477276, -0.798519
-0.449265, -0.011285, 0.902983, -0.329980, 0.357420, -0.600180, -0.012497, 0.461642, -0.810951
-0.438468, -0.009699, 0.904447, -0.333620, 0.357140, -0.613200, -0.010723, 0.451384, -0.816812
-0.432246, -0.009516, 0.906948, -0.333620, 0.357140, -0.613200, -0.010492, 0.444727, -0.816812
-0.425048, -0.009577, 0.902922, -0.329000, 0.352240, -0.609140, -0.010606, 0.439951, -0.816747
-0.411689, -0.022082, 0.908717, -0.339500, 0.347200, -0.616000, -0.024295, 0.425272, -0.839635
-0.392474, -0.009394, 0.929152, -0.337680, 0.343560, -0.623280, -0.010110, 0.399648, -0.842217
-0.375760, -0.006832, 0.931592, -0.333900, 0.337400, -0.626640, -0.007334, 0.383384, -0.845634
-0.372954, -0.022204, 0.930738, -0.333900, 0.337400, -0.626640, -0.023852, 0.381018, -0.845634
-0.345870, -0.020191, 0.943731, -0.334880, 0.332220, -0.629580, -0.021392, 0.351217, -0.854835
-0.333365, -0.017934, 0.947208, -0.335440, 0.330820, -0.634760, -0.018931, 0.338350, -0.857782
-0.325313, -0.014335, 0.942206, -0.342720, 0.323960, -0.634900, -0.015213, 0.332417, -0.878980
-0.305427, -0.016714, 0.952576, -0.337400, 0.316960, -0.645960, -0.017544, 0.310232, -0.882074
-0.273402, -0.014945, 0.986919, -0.337400, 0.316960, -0.645960, -0.015142, 0.270219, -0.882074
-0.270840, -0.014152, 0.981551, -0.341740, 0.315280, -0.649600, -0.014417, 0.269205, -0.891099
-0.256932, -0.023851, 0.982222, -0.346920, 0.307580, -0.651560, -0.024278, 0.255778, -0.910883
-0.251442, -0.020435, 0.972340, -0.339080, 0.305060, -0.651560, -0.021013, 0.252998, -0.903614
-0.236497, -0.024766, 0.992714, -0.339920, 0.302540, -0.653380, -0.024943, 0.233803, -0.908965
-0.227530, -0.028731, 0.981246, -0.339920, 0.302540, -0.653380, -0.029272, 0.227758, -0.908965
-0.218441, -0.026962, 0.983076, -0.342440, 0.299320, -0.659820, -0.027419, 0.218570, -0.917937
-0.208986, -0.028304, 0.991067, -0.339220, 0.296520, -0.660520, -0.028551, 0.207743, -0.917913
-0.198799, -0.026657, 0.992409, -0.344680, 0.288820, -0.662760, -0.026854, 0.197633, -0.938797
-0.192516, -0.027328, 0.991677, -0.343560, 0.284200, -0.658560, -0.027550, 0.191676, -0.945126
-0.186965, -0.028609, 0.985516, -0.343560, 0.284200, -0.658560, -0.029021, 0.187408, -0.945126
-0.178974, -0.031781, 0.986309, -0.338940, 0.286440, -0.657020, -0.032211, 0.179414, -0.934601
-0.170678, -0.021716, 0.971913, -0.347760, 0.283500, -0.668920, -0.022340, 0.173795, -0.952295
-0.170068, -0.032025, 0.980575, -0.340900, 0.280280, -0.665700, -0.032648, 0.171639, -0.948128
-0.169153, -0.039711, 0.973194, -0.346500, 0.277480, -0.667940, -0.040782, 0.171953, -0.961013
-0.155123, -0.030805, 0.980270, -0.346500, 0.277480, -0.667940, -0.031415, 0.156868, -0.961013
-0.147437, -0.033977, 0.979843, -0.343000, 0.275940, -0.668500, -0.034662, 0.149261, -0.958773
-0.128405, -0.034099, 0.989481, -0.346640, 0.274120, -0.669760, -0.034448, 0.128973, -0.967145
-0.118706, -0.030317, 0.995825, -0.346220, 0.261940, -0.673400, -0.030435, 0.118589, -0.988553
-0.104432, -0.034953, 0.998204, -0.347480, 0.262220, -0.677600, -0.035002, 0.104177, -0.989786
-0.093025, -0.036600, 1.004548, -0.347480, 0.262220, -0.677600, -0.036418, 0.092280, -0.989786
-0.087291, -0.040016, 1.000156, -0.348460, 0.254520, -0.672700, -0.039988, 0.086988, -1.005399
-0.075640, -0.035075, 1.003267, -0.349020, 0.255780, -0.680120, -0.034947, 0.075206, -1.003810
-0.055022, -0.043127, 1.019371, -0.346780, 0.254100, -0.678720, -0.042282, 0.053876, -1.003883
-0.036051, -0.036173, 1.029131, -0.346360, 0.243320, -0.681800, -0.035135, 0.034995, -1.023840
-0.042090, -0.037393, 1.005829, -0.346360, 0.243320, -0.681800, -0.037159, 0.041793, -1.023840
-0.046909, -0.037881, 1.001925, -0.343700, 0.238840, -0.687400, -0.037790, 0.046751, -1.028946
-0.046482, -0.033062, 0.999058, -0.338800, 0.232400, -0.687120, -0.033081, 0.046467, -1.035012
-0.050142, -0.034526, 0.997411, -0.335020, 0.226240, -0.685020, -0.034602, 0.050200, -1.042288
-0.043920, -0.029707, 0.997350, -0.331380, 0.223160, -0.684040, -0.029777, 0.043989, -1.043579
-0.040992, -0.028487, 1.000888, -0.329000, 0.228620, -0.684040, -0.028454, 0.040916, -1.028956
-0.043859, -0.024949, 0.997960, -0.329000, 0.228620, -0.684040, -0.024995, 0.043907, -1.028956
-0.041541, -0.023546, 0.992165, -0.331100, 0.219800, -0.689360, -0.023727, 0.041833, -1.050198
-0.042700, -0.029341, 0.999973, -0.329420, 0.226240, -0.685160, -0.029333, 0.042657, -1.034446
-0.038308, -0.031049, 0.997228, -0.332500, 0.222600, -0.687820, -0.031125, 0.038377, -1.046303
-0.044652, -0.025925, 0.995825, -0.329840, 0.219660, -0.688240, -0.026028, 0.044794, -1.048733
-0.040260, -0.024766, 0.992165, -0.329840, 0.219660, -0.688240, -0.024956, 0.040543, -1.048733
-0.036905, -0.025132, 0.999973, -0.327880, 0.222180, -0.684740, -0.025127, 0.036878, -1.040695
-0.036234, -0.026840, 0.996618, -0.335020, 0.221200, -0.686280, -0.026925, 0.036328, -1.052693
-0.037393, -0.026901, 0.993629, -0.325080, 0.219100, -0.686980, -0.027067, 0.037601, -1.043192
-0.038918, -0.024583, 0.995703, -0.329280, 0.216720, -0.683760, -0.024684, 0.039054, -1.054154
-0.034465, -0.028853, 0.997106, -0.329280, 0.216720, -0.683760, -0.028929, 0.034537, -1.054154
-0.036966, -0.023302, 0.997533, -0.328720, 0.214340, -0.690480, -0.023355, 0.037030, -1.058435
-0.026596, -0.025864, 1.000095, -0.329000, 0.223300, -0.688380, -0.025856, 0.026578, -1.039943
-0.028853, -0.020618, 1.000095, -0.329140, 0.210420, -0.689220, -0.020613, 0.028836, -1.067428
-0.031598, -0.022936, 0.996313, -0.330120, 0.218400, -0.689220, -0.023017, 0.031696, -1.051775
-0.028426, -0.023790, 0.998631, -0.330120, 0.218400, -0.689220, -0.023818, 0.028449, -1.051775
-0.028426, -0.023119, 0.999607, -0.327180, 0.220220, -0.692020, -0.023124, 0.028422, -1.043813
-0.029097, -0.021289, 0.996374, -0.330680, 0.216860, -0.689640, -0.021363, 0.029188, -1.055804
-0.029524, -0.023912, 0.996130, -0.327740, 0.225820, -0.691740, -0.024000, 0.029621, -1.032926
-0.027938, -0.027084, 0.995520, -0.331380, 0.224560, -0.688240, -0.027199, 0.028046, -1.040678
-0.029402, -0.025437, 0.997838, -0.331380, 0.224560, -0.688240, -0.025487, 0.029448, -1.040678
-0.025376, -0.026108, 0.997716, -0.337260, 0.220220, -0.694820, -0.026162, 0.025420, -1.057787
-0.030744, -0.026291, 0.996252, -0.340620, 0.231840, -0.690480, -0.026384, 0.030839, -1.038631
-0.029036, -0.016287, 0.994117, -0.345940, 0.228060, -0.690060, -0.016382, 0.029196, -1.053398
-0.023180, -0.021411, 0.996313, -0.342720, 0.232680, -0.689780, -0.021487, 0.023256, -1.039807
-0.021655, -0.023607, 0.999485, -0.342720, 0.232680, -0.689780, -0.023615, 0.021657, -1.039807
-0.028060, -0.017263, 0.994727, -0.343420, 0.230720, -0.693000, -0.017353, 0.028197, -1.044677
-0.022143, -0.022021, 0.999790, -0.348880, 0.229040, -0.693700, -0.022022, 0.022139, -1.055315
-0.028121, -0.018544, 0.997350, -0.346780, 0.233660, -0.690620, -0.018591, 0.028183, -1.043322
-0.023607, -0.019032, 0.995154, -0.349860, 0.230300, -0.689360, -0.019122, 0.023713, -1.054084
-0.022265, -0.017324, 0.996496, -0.349860, 0.230300, -0.689360, -0.017383, 0.022336, -1.054084
-0.026169, -0.031110, 0.997716, -0.351260, 0.234500, -0.690060, -0.031171, 0.026210, -1.047600
-0.027572, -0.026169, 0.996801, -0.351120, 0.240520, -0.688240, -0.026247, 0.027644, -1.035653
-0.015799, -0.010614, 0.994544, -0.352380, 0.237720, -0.696500, -0.010672, 0.015883, -1.042763
-0.018971, -0.013359, 0.998936, -0.360780, 0.242620, -0.694820, -0.013372, 0.018987, -1.044225
-0.012322, -0.003965, 0.997716, -0.360780, 0.242620, -0.694820, -0.003974, 0.012349, -1.044225
-0.013542, -0.007625, 0.996740, -0.359800, 0.244300, -0.688380, -0.007650, 0.013585, -1.039762
-0.016531, -0.016043, 0.996435, -0.363160, 0.242620, -0.687960, -0.016099, 0.016586, -1.047266
-0.013359, -0.019093, 1.001681, -0.361480, 0.248920, -0.691040, -0.019059, 0.013333, -1.033203
-0.018361, -0.023607, 0.998753, -0.363440, 0.245700, -0.692160, -0.023632, 0.018377, -1.041782
-0.007930, 0.001159, 0.997777, -0.363440, 0.245700, -0.692160, 0.001162, 0.007947, -1.041782
-0.012505, -0.022509, 0.998997, -0.367500, 0.248360, -0.696920, -0.022528, 0.012514, -1.041941
-0.014213, -0.017019, 0.996618, -0.363860, 0.246960, -0.695380, -0.017075, 0.014258, -1.039944
-0.015494, -0.026901, 1.007964, -0.370440, 0.241080, -0.696080, -0.026682, 0.015365, -1.059313
-0.021533, -0.023241, 1.003328, -0.365120, 0.253820, -0.700280, -0.023160, 0.021453, -1.028770
-0.011346, -0.014457, 1.002779, -0.365120, 0.253820, -0.700280, -0.014416, 0.011313, -1.028770
0.014640, -0.009760, 0.982283, -0.366940, 0.247520, -0.694540, -0.009936, -0.014902, -1.042805
0.007076, -0.021045, 0.999546, -0.376460, 0.250740, -0.701960, -0.021051, -0.007078, -1.048673
0.007503, -0.021350, 0.996008, -0.377580, 0.254380, -0.699020, -0.021432, -0.007531, -1.043382
0.011651, -0.020496, 0.994788, -0.369740, 0.250460, -0.693980, -0.020600, -0.011709, -1.040853
0.013542, -0.033428, 1.001925, -0.369740, 0.250460, -0.699860, -0.033351, -0.013508, -1.040853
0.011468, -0.025376, 1.001437, -0.378420, 0.249480, -0.699860, -0.025334, -0.011447, -1.053384
0.006466, -0.025132, 1.007598, -0.375760, 0.244440, -0.697620, -0.024937, -0.006415, -1.059504
0.021716, -0.008723, 1.010648, -0.377440, 0.239120, -0.703780, -0.008631, -0.021483, -1.071536
0.010858, 0.066856, 0.826855, -0.375340, 0.244300, -0.701120, 0.080680, -0.013088, -1.059255
0.041907, 0.001159, 1.001193, -0.371560, 0.241220, -0.697620, 0.001158, -0.041833, -1.060427
0.059048, -0.001952, 0.993263, -0.371560, 0.241220, -0.697620, -0.001965, -0.059379, -1.060427
0.054961, -0.025010, 0.997777, -0.373800, 0.243180, -0.704340, -0.025060, -0.055011, -1.059476
0.064111, -0.027694, 1.008818, -0.373240, 0.239400, -0.705320, -0.027445, -0.063441, -1.065933
0.071858, -0.004697, 0.993141, -0.371280, 0.230020, -0.704340, -0.004729, -0.072228, -1.081588
0.067161, -0.034648, 1.000766, -0.377300, 0.231140, -0.707140, -0.034608, -0.066969, -1.086602
0.080825, -0.015677, 0.994117, -0.377300, 0.231140, -0.707140, -0.015768, -0.081115, -1.086602
0.101138, -0.003660, 0.996130, -0.374080, 0.231700, -0.703360, -0.003674, -0.101184, -1.081694
0.103029, -0.032513, 0.985882, -0.378280, 0.223160, -0.709380, -0.032967, -0.104070, -1.103261
0.112972, -0.010858, 0.989176, -0.375200, 0.229740, -0.708820, -0.010976, -0.113709, -1.086822
0.116388, -0.011407, 0.991250, -0.378420, 0.223020, -0.713020, -0.011507, -0.116873, -1.103698
0.131150, -0.002501, 0.983930, -0.378420, 0.223020, -0.713020, -0.002542, -0.132510, -1.103698
0.133834, -0.009150, 0.971608, -0.385000, 0.220360, -0.710360, -0.009417, -0.136877, -1.116395
0.146339, -0.013115, 0.982710, -0.382480, 0.224140, -0.712460, -0.013345, -0.147814, -1.106171
0.155123, -0.001403, 0.980148, -0.383040, 0.215880, -0.716100, -0.001431, -0.156963, -1.123024
0.161162, 0.003111, 0.981185, -0.386260, 0.217980, -0.719880, 0.003171, -0.162798, -1.122464
0.184403, 0.005185, 0.975634, -0.386260, 0.217980, -0.719880, 0.005314, -0.186802, -1.122464
0.182085, 0.003782, 0.973621, -0.381920, 0.214060, -0.718060, 0.003884, -0.184881, -1.125390
0.192089, 0.004575, 0.964837, -0.387240, 0.203140, -0.717640, 0.004742, -0.196518, -1.153125
0.200324, 0.019703, 0.971547, -0.382760, 0.201460, -0.716800, 0.020277, -0.203300, -1.151753
0.211121, 0.007686, 0.977891, -0.379400, 0.196280, -0.715260, 0.007860, -0.212624, -1.158821
0.207156, -0.012871, 0.972706, -0.379400, 0.196280, -0.715260, -0.013231, -0.209816, -1.158821
0.215757, -0.001830, 0.975085, -0.382340, 0.196560, -0.719740, -0.001877, -0.217761, -1.161384
0.229055, 0.001464, 0.968741, -0.379960, 0.190260, -0.717640, 0.001511, -0.232182, -1.172009
0.240645, -0.008418, 0.959530, -0.380100, 0.183400, -0.715680, -0.008773, -0.245717, -1.186693
0.253455, 0.000854, 0.953857, -0.378280, 0.183680, -0.717780, 0.000895, -0.259714, -1.184212
0.259799, 0.016287, 0.954284, -0.378280, 0.183680, -0.717780, 0.017066, -0.265766, -1.184212
0.268522, 0.001342, 0.949648, -0.381220, 0.182560, -0.723660, 0.001413, -0.275566, -1.189634
0.283284, 0.010614, 0.941352, -0.385700, 0.178640, -0.722680, 0.011275, -0.292295, -1.202504
0.286944, 0.008601, 0.941169, -0.379400, 0.172340, -0.722120, 0.009138, -0.295917, -1.209869
0.291458, -0.001586, 0.942938, -0.381500, 0.164080, -0.716520, -0.001682, -0.299780, -1.230071
0.315248, 0.015372, 0.932080, -0.381500, 0.164080, -0.716520, 0.016491, -0.326101, -1.230071
0.329583, 0.022753, 0.926285, -0.376180, 0.166040, -0.716520, 0.024559, -0.341748, -1.220580
0.327021, -0.007259, 0.926773, -0.376320, 0.162120, -0.721280, -0.007832, -0.339211, -1.229470
0.329827, 0.007564, 0.937509, -0.380800, 0.158620, -0.723940, 0.008068, -0.338278, -1.241560
0.344894, -0.025620, 0.930494, -0.377580, 0.154980, -0.725200, -0.027527, -0.354834, -1.246759
0.356911, -0.009821, 0.913841, -0.377580, 0.154980, -0.725200, -0.010747, -0.372324, -1.246759
0.372466, 0.004270, 0.904447, -0.375480, 0.148120, -0.722120, 0.004721, -0.390647, -1.260506
0.373442, 0.001708, 0.908595, -0.380240, 0.143220, -0.722120, 0.001880, -0.389961, -1.276024
0.383324, 0.000061, 0.903959, -0.375760, 0.138040, -0.722400, 0.000067, -0.401066, -1.284189
0.389180, 0.000610, 0.906033, -0.375200, 0.131180, -0.726600, 0.000673, -0.405712, -1.299904
0.398757, -0.000122, 0.900787, -0.375200, 0.131180, -0.726600, -0.000135, -0.416747, -1.299904
0.403210, -0.000671, 0.905728, -0.378840, 0.131600, -0.717640, -0.000741, -0.418836, -1.301911
0.405833, -0.003904, 0.906033, -0.373660, 0.123340, -0.722120, -0.004309, -0.421122, -1.317421
0.417545, -0.003050, 0.894687, -0.377440, 0.116340, -0.717920, -0.003409, -0.436647, -1.337252
0.431026, 0.001769, 0.887306, -0.378280, 0.121380, -0.721840, 0.001994, -0.452198, -1.325751
0.434320, 0.012078, 0.885110, -0.378280, 0.121380, -0.721840, 0.013645, -0.456140, -1.325751
0.451461, 0.011224, 0.870775, -0.378700, 0.112560, -0.718060, 0.012889, -0.478271, -1.347335
0.459635, 0.010065, 0.867237, -0.383040, 0.108080, -0.719880, 0.011605, -0.487330, -1.361232
0.466345, 0.020862, 0.862418, -0.376320, 0.108920, -0.716940, 0.024185, -0.495585, -1.354510
0.480985, -0.006893, 0.855891, -0.373800, 0.095340, -0.719180, -0.008053, -0.511973, -1.386514
0.485133, -0.003904, 0.851499, -0.374780, 0.095340, -0.717920, -0.004585, -0.517868, -1.387141
0.496357, -0.009943, 0.844118, -0.374780, 0.091840, -0.717920, -0.011779, -0.531533, -1.395931
0.500444, -0.026535, 0.840519, -0.372400, 0.088060, -0.716240, -0.031559, -0.536810, -1.404045
0.508130, -0.000122, 0.836371, -0.372540, 0.076020, -0.713300, -0.000146, -0.545946, -1.434951
0.512583, 0.001891, 0.843813, -0.377720, 0.078960, -0.714280, 0.002241, -0.545886, -1.430170
0.524234, 0.000488, 0.833016, -0.376880, 0.077000, -0.708960, 0.000586, -0.561700, -1.434711
0.529907, 0.001220, 0.826550, -0.376880, 0.077000, -0.708960, 0.001476, -0.570098, -1.434711
0.540582, 0.002928, 0.819474, -0.377720, 0.070980, -0.711200, 0.003573, -0.583140, -1.450495
0.550891, 0.004453, 0.803919, -0.368620, 0.070280, -0.707840, 0.005539, -0.600755, -1.447850
0.564006, 0.002379, 0.792634, -0.371840, 0.057260, -0.710500, 0.003001, -0.618440, -1.483455
0.566202, 0.010675, 0.798124, -0.374220, 0.057820, -0.711060, 0.013374, -0.616975, -1.482950
0.575230, 0.025193, 0.790194, -0.374220, 0.057820, -0.711060, 0.031871, -0.629004, -1.482950
0.592737, -0.008113, 0.790926, -0.366800, 0.053480, -0.717780, -0.010257, -0.643106, -1.491465
0.590846, -0.002257, 0.778482, -0.369600, 0.051240, -0.711340, -0.002899, -0.649216, -1.498488
0.594323, -0.004087, 0.776835, -0.370580, 0.048580, -0.710920, -0.005261, -0.653061, -1.505898
0.589565, -0.013908, 0.781959, -0.367640, 0.047460, -0.714420, -0.017784, -0.645954, -1.507863
0.604632, -0.001891, 0.772443, -0.367640, 0.047460, -0.714420, -0.002448, -0.664134, -1.507863
0.615734, -0.016775, 0.759572, -0.365960, 0.041020, -0.707700, -0.022081, -0.681072, -1.524623
0.614331, -0.008296, 0.766587, -0.365820, 0.041860, -0.707700, -0.010822, -0.675556, -1.522314
0.615063, -0.000366, 0.765428, -0.368900, 0.032900, -0.707700, -0.000478, -0.676904, -1.547297
0.620980, 0.003416, 0.755424, -0.367080, 0.033460, -0.706860, 0.004522, -0.688024, -1.545346
0.626836, 0.000305, 0.744322, -0.367080, 0.033460, -0.706860, 0.000410, -0.699923, -1.545346
0.643794, -0.008174, 0.730780, -0.364560, 0.029260, -0.700280, -0.011185, -0.722169, -1.556157
0.639829, -0.002379, 0.741150, -0.366800, 0.025620, -0.695800, -0.003210, -0.712158, -1.566512
0.645502, 0.001586, 0.739869, -0.368760, 0.027160, -0.697620, 0.002144, -0.717385, -1.562727
0.650687, 0.006771, 0.732610, -0.367780, 0.018200, -0.702240, 0.009242, -0.726223, -1.586800
0.657458, -0.002318, 0.728157, -0.367780, 0.018200, -0.702240, -0.003183, -0.734416, -1.586800
0.661301, 0.002013, 0.717848, -0.368060, 0.016660, -0.693560, 0.002804, -0.744418, -1.591013
0.671915, 0.009516, 0.707417, -0.360780, 0.015540, -0.689920, 0.013451, -0.759620, -1.593199
0.678503, 0.001952, 0.701439, -0.365120, 0.005040, -0.692860, 0.002783, -0.768777, -1.622443
0.683383, 0.002440, 0.696803, -0.366940, 0.002100, -0.689640, 0.003502, -0.775672, -1.630523
0.684237, -0.001891, 0.695278, -0.366940, 0.002100, -0.689640, -0.002720, -0.777393, -1.630523
0.689117, -0.000427, 0.693631, -0.363580, -0.001260, -0.695380, -0.000616, -0.782134, -1.639712
0.688324, -0.000061, 0.701195, -0.365400, -0.003780, -0.684460, -0.000087, -0.776136, -1.646591
0.688446, 0.000732, 0.699792, -0.364140, -0.005320, -0.686000, 0.001046, -0.777225, -1.650855
0.692838, 0.008052, 0.689605, -0.364560, -0.007140, -0.687820, 0.011676, -0.787703, -1.655829
0.699182, 0.006466, 0.681797, -0.364560, -0.007140, -0.687820, 0.009483, -0.797964, -1.655829
0.706929, 0.006039, 0.674294, -0.364000, -0.008540, -0.685720, 0.008956, -0.809001, -1.659703
0.719739, -0.001891, 0.655140, -0.361200, -0.003780, -0.692160, -0.002886, -0.832347, -1.646711
0.715713, 0.012566, 0.663375, -0.365680, -0.016940, -0.678440, 0.018940, -0.823242, -1.682538
0.711016, 0.008967, 0.668072, -0.362180, -0.010360, -0.676900, 0.013421, -0.816483, -1.664843
0.711687, 0.006161, 0.672891, -0.362180, -0.010360, -0.676900, 0.009156, -0.813390, -1.664843
0.716994, 0.005673, 0.667950, -0.364000, -0.017080, -0.682080, 0.008493, -0.820778, -1.683135
0.720532, 0.002196, 0.661423, -0.364420, -0.024500, -0.679700, 0.003320, -0.828141, -1.703375
0.726998, 0.003050, 0.651663, -0.358960, -0.022680, -0.679420, 0.004680, -0.839982, -1.699345
0.731573, -0.002623, 0.646905, -0.358120, -0.030380, -0.677600, -0.004055, -0.846738, -1.720875
0.731085, 0.000732, 0.644221, -0.358120, -0.030380, -0.677600, 0.001136, -0.848474, -1.720875
0.732122, -0.000671, 0.643672, -0.359380, -0.030100, -0.675360, -0.001042, -0.849600, -1.719806
0.738527, -0.002928, 0.641354, -0.357700, -0.029960, -0.683900, -0.004565, -0.855698, -1.719808
0.737429, 0.006161, 0.641110, -0.363720, -0.035280, -0.682360, 0.009610, -0.855132, -1.732941
0.741943, 0.005856, 0.639951, -0.359100, -0.030380, -0.676340, 0.009150, -0.859050, -1.720646
0.730780, 0.009577, 0.649711, -0.359100, -0.030380, -0.676340, 0.014739, -0.844002, -1.720646
0.735904, 0.004392, 0.642513, -0.357980, -0.033740, -0.675780, 0.006836, -0.853036, -1.730220
0.735843, -0.002562, 0.645197, -0.363720, -0.036120, -0.673120, -0.003971, -0.850936, -1.735229
0.744627, 0.003721, 0.629032, -0.355600, -0.028700, -0.681940, 0.005915, -0.869343, -1.716780
0.753350, 0.007747, 0.614392, -0.360360, -0.037520, -0.668360, 0.012609, -0.886608, -1.739990
0.759450, -0.005124, 0.606584, -0.356580, -0.038640, -0.664580, -0.008447, -0.896822, -1.744188
0.757376, -0.003782, 0.615185, -0.356580, -0.038640, -0.664580, -0.006148, -0.888616, -1.744188
0.752984, -0.000061, 0.625494, -0.352240, -0.040880, -0.673820, -0.000098, -0.877622, -1.751786
0.751459, 0.001037, 0.622932, -0.357420, -0.042420, -0.674800, 0.001665, -0.878642, -1.754377
0.750910, 0.009455, 0.629093, -0.350980, -0.034860, -0.676480, 0.015028, -0.873387, -1.735243
0.754021, 0.010797, 0.619882, -0.352100, -0.038920, -0.673400, 0.017416, -0.882649, -1.746336
0.761158, 0.015677, 0.616039, -0.352100, -0.038920, -0.673400, 0.025443, -0.890225, -1.746336
0.758901, 0.007625, 0.608963, -0.350140, -0.045080, -0.669060, 0.012521, -0.894539, -1.764290
0.760853, -0.009089, 0.603595, -0.343280, -0.044660, -0.672000, -0.015057, -0.900091, -1.765617
0.748165, -0.004758, 0.625433, -0.348880, -0.048020, -0.672700, -0.007607, -0.874498, -1.773027
0.747250, 0.001342, 0.634461, -0.348740, -0.043540, -0.672280, 0.002115, -0.866846, -1.760453
0.746640, -0.001647, 0.633058, -0.348740, -0.043540, -0.672280, -0.002602, -0.867535, -1.760453
0.745481, -0.004636, 0.629520, -0.345100, -0.045640, -0.674800, -0.007364, -0.869521, -1.767735
0.748592, -0.007503, 0.627019, -0.347620, -0.049980, -0.674100, -0.011966, -0.873511, -1.779045
0.744627, -0.001098, 0.629520, -0.346080, -0.041720, -0.678160, -0.001744, -0.868968, -1.756217
0.743834, 0.014213, 0.634034, -0.343980, -0.045780, -0.677880, 0.022413, -0.864794, -1.768558
0.742980, -0.001647, 0.628971, -0.343980, -0.045780, -0.677880, -0.002619, -0.868306, -1.768558
0.740174, -0.006039, 0.633302, -0.345800, -0.045220, -0.678720, -0.009535, -0.863031, -1.766278
0.733037, -0.007381, 0.642269, -0.339640, -0.040040, -0.683060, -0.011492, -0.851268, -1.753594
0.727547, -0.008174, 0.650931, -0.343560, -0.050540, -0.679000, -0.012557, -0.840882, -1.782305
0.724253, -0.003111, 0.657641, -0.343420, -0.043540, -0.683620, -0.004731, -0.833559, -1.762357
0.714676, -0.004392, 0.664473, -0.343420, -0.043540, -0.683620, -0.006610, -0.821773, -1.762357
0.710345, -0.003233, 0.669963, -0.345240, -0.039620, -0.684880, -0.004826, -0.814640, -1.750507
0.706380, -0.001586, 0.673867, -0.346500, -0.036260, -0.687260, -0.002354, -0.808948, -1.740513
0.700707, -0.006710, 0.678320, -0.341320, -0.027160, -0.689920, -0.009892, -0.801606, -1.715652
0.694912, -0.003782, 0.683749, -0.344400, -0.029680, -0.686560, -0.005531, -0.793487, -1.722213
0.694180, 0.001525, 0.682102, -0.344400, -0.029680, -0.686560, 0.002236, -0.794173, -1.722213
0.687470, 0.004636, 0.687470, -0.348180, -0.021980, -0.682640, 0.006743, -0.785387, -1.699291
0.669353, 0.015555, 0.710894, -0.349300, -0.015120, -0.692860, 0.021877, -0.755191, -1.679506
0.667340, 0.006954, 0.713273, -0.352520, -0.014560, -0.687400, 0.009749, -0.752117, -1.677525
0.658922, 0.001647, 0.726388, -0.346360, -0.006440, -0.692580, 0.002267, -0.736734, -1.654837
0.648430, 0.004514, 0.733220, -0.346360, -0.006440, -0.692580, 0.006156, -0.724097, -1.654837
0.646173, 0.003172, 0.727791, -0.346640, -0.001960, -0.698880, 0.004358, -0.726060, -1.641900
0.637389, -0.006649, 0.739259, -0.352240, -0.003220, -0.694960, -0.008994, -0.711514, -1.645387
0.636779, -0.004941, 0.743468, -0.344400, 0.004620, -0.700280, -0.006646, -0.708244, -1.622832
0.620736, -0.000061, 0.754387, -0.346360, 0.007700, -0.701540, -0.000081, -0.688510, -1.614019
0.608231, 0.002257, 0.766709, -0.346360, 0.007700, -0.701540, 0.002944, -0.670641, -1.614019
0.605486, 0.000732, 0.769393, -0.345100, 0.016520, -0.702800, 0.000951, -0.666742, -1.588413
0.593286, 0.002989, 0.782996, -0.349300, 0.021840, -0.703780, 0.003817, -0.648416, -1.573802
0.588528, 0.009150, 0.780007, -0.350420, 0.022680, -0.706860, 0.011730, -0.646352, -1.571614
0.578768, 0.004514, 0.787144, -0.350000, 0.035700, -0.709240, 0.005735, -0.634003, -1.534598
0.573400, 0.013115, 0.784460, -0.350000, 0.035700, -0.709240, 0.016717, -0.631130, -1.534598
0.564982, 0.012078, 0.789950, -0.348740, 0.036960, -0.707840, 0.015288, -0.620808, -1.530659
0.554307, 0.007320, 0.802699, -0.349440, 0.040880, -0.710080, 0.009119, -0.604339, -1.519788
0.536434, 0.000915, 0.826245, -0.348180, 0.050540, -0.712740, 0.001107, -0.575843, -1.492098
0.528565, 0.004880, 0.828563, -0.349720, 0.048720, -0.717780, 0.005890, -0.567835, -1.497826
0.516426, -0.008479, 0.839726, -0.349720, 0.048720, -0.717780, -0.010097, -0.551348, -1.497826
0.513132, -0.000244, 0.836493, -0.346920, 0.054600, -0.719040, -0.000292, -0.550238, -1.480142
0.498553, 0.007930, 0.844301, -0.345380, 0.062720, -0.711620, 0.009392, -0.533380, -1.456607
0.481473, 0.034038, 0.852536, -0.342300, 0.062580, -0.716240, 0.039904, -0.513759, -1.455421
0.454877, 0.074664, 0.860954, -0.344260, 0.074900, -0.714560, 0.086506, -0.484516, -1.422017
0.483974, -0.088694, 0.866383, -0.344260, 0.074900, -0.714560, -0.102017, -0.507217, -1.422017
0.408761, 0.149267, 0.865468, -0.343980, 0.076860, -0.719600, 0.170790, -0.435610, -1.416414
0.397659, 0.050935, 0.897615, -0.342300, 0.080080, -0.718760, 0.056684, -0.416437, -1.406433
0.447313, -0.047336, 0.839360, -0.340620, 0.092400, -0.717220, -0.056336, -0.488978, -1.371351
0.412726, 0.001159, 0.924272, -0.343560, 0.091280, -0.719040, 0.001254, -0.419974, -1.376557
0.417972, 0.001159, 0.887672, -0.336420, 0.102060, -0.718340, 0.001306, -0.440067, -1.341700
0.401807, -0.011224, 0.897798, -0.336420, 0.102060, -0.718340, -0.012501, -0.420783, -1.341700
0.392962, -0.024461, 0.903166, -0.329280, 0.109620, -0.723100, -0.027077, -0.410255, -1.314878
0.321409, 0.127307, 0.940193, -0.334460, 0.109480, -0.725760, 0.134587, -0.326629, -1.319905
0.450790, 0.069906, 0.924089, -0.332640, 0.127400, -0.725200, 0.075505, -0.452734, -1.270483
0.353495, -0.022021, 0.851255, -0.338520, 0.124880, -0.724360, -0.025863, -0.393476, -1.282834
0.338062, -0.012993, 0.930006, -0.338520, 0.124880, -0.724360, -0.013970, -0.348624, -1.282834
0.282979, -0.001342, 0.949465, -0.341740, 0.137480, -0.721840, -0.001413, -0.289658, -1.253764
0.324154, -0.013237, 0.946659, -0.340480, 0.144620, -0.721700, -0.013982, -0.329875, -1.234584
0.338367, -0.001159, 0.941840, -0.344820, 0.144760, -0.726880, -0.001231, -0.344902, -1.238777
0.276513, 0.003050, 0.946964, -0.347760, 0.154840, -0.723240, 0.003221, -0.284099, -1.217350
0.351482, 0.006588, 0.956785, -0.347760, 0.154840, -0.723240, 0.006885, -0.352046, -1.217350
0.260043, -0.007991, 0.951356, -0.351960, 0.157780, -0.724920, -0.008399, -0.266813, -1.214815
0.237839, -0.003111, 0.954345, -0.354480, 0.166600, -0.718200, -0.003260, -0.244240, -1.196898
0.227530, 0.013908, 0.964349, -0.349580, 0.175700, -0.721560, 0.014421, -0.231681, -1.170518
0.228994, 0.007076, 0.964654, -0.355880, 0.175980, -0.713580, 0.007335, -0.233065, -1.177014
0.195810, 0.010492, 0.973804, -0.355880, 0.175980, -0.713580, 0.010774, -0.198420, -1.177014
0.167506, 0.001464, 0.980819, -0.363720, 0.184100, -0.716800, 0.001493, -0.169150, -1.167684
0.160125, 0.001159, 0.981185, -0.358820, 0.187180, -0.714000, 0.001181, -0.161769, -1.155426
0.159454, 0.005124, 0.979782, -0.360780, 0.187880, -0.716520, 0.005230, -0.161328, -1.156128
0.143594, -0.004819, 0.984235, -0.359660, 0.201600, -0.709940, -0.004896, -0.144870, -1.125355
0.132309, -0.027511, 0.985455, -0.359660, 0.201600, -0.709940, -0.027910, -0.133412, -1.125355
0.119560, -0.027694, 0.988688, -0.359240, 0.202860, -0.715680, -0.028004, -0.120297, -1.122193
0.075579, -0.014945, 0.988810, -0.363160, 0.202720, -0.707140, -0.015113, -0.076277, -1.127121
0.075396, -0.001708, 0.980087, -0.359800, 0.214340, -0.706300, -0.001743, -0.076777, -1.098980
0.088267, 0.014762, 0.991494, -0.361620, 0.215740, -0.703500, 0.014888, -0.088780, -1.098336
0.081679, 0.002318, 0.987468, -0.361620, 0.215740, -0.703500, 0.002347, -0.082527, -1.098336
0.067710, -0.008723, 0.994178, -0.359240, 0.218120, -0.707280, -0.008774, -0.067999, -1.090571
0.058133, -0.007259, 0.997594, -0.359100, 0.222180, -0.702240, -0.007276, -0.058206, -1.082180
0.048068, -0.007503, 0.995520, -0.364560, 0.223580, -0.700700, -0.007537, -0.048245, -1.086114
0.034404, -0.010736, 0.997655, -0.361340, 0.229320, -0.704480, -0.010761, -0.034469, -1.070746
0.019154, -0.010309, 1.002596, -0.361340, 0.229320, -0.704480, -0.010282, -0.019101, -1.070746
0.019276, -0.018788, 0.990823, -0.359520, 0.236040, -0.701120, -0.018960, -0.019449, -1.055286
-0.018971, -0.023058, 1.024739, -0.356300, 0.238700, -0.700280, -0.022498, 0.018506, -1.045980
-0.036966, -0.017446, 1.030351, -0.352940, 0.243460, -0.694820, -0.016930, 0.035857, -1.032395
-0.010309, -0.018849, 1.001925, -0.349720, 0.235060, -0.696080, -0.018811, 0.010287, -1.044466
-0.010492, -0.023790, 0.997045, -0.349720, 0.235060, -0.696080, -0.023856, 0.010520, -1.044466
-0.009943, -0.023302, 0.994117, -0.346920, 0.235200, -0.692160, -0.023436, 0.009999, -1.040462
-0.010309, -0.022143, 0.995886, -0.343140, 0.237160, -0.696500, -0.022231, 0.010349, -1.031487
-0.008906, -0.022265, 1.000644, -0.347900, 0.231700, -0.694820, -0.022247, 0.008898, -1.048708
-0.009699, -0.016226, 0.997289, -0.343560, 0.234640, -0.694680, -0.016269, 0.009724, -1.037044
-0.013298, -0.021655, 0.997777, -0.343560, 0.234640, -0.694680, -0.021700, 0.013324, -1.037044
-0.018849, -0.019032, 0.997411, -0.345520, 0.235760, -0.692860, -0.019079, 0.018892, -1.037475
-0.012505, -0.006649, 0.998753, -0.346920, 0.234220, -0.699860, -0.006657, 0.012520, -1.042400
-0.018849, -0.021899, 0.997655, -0.340760, 0.244160, -0.700700, -0.021947, 0.018887, -1.014521
-0.016531, -0.023851, 0.996496, -0.349020, 0.238140, -0.695100, -0.023930, 0.016583, -1.037491
-0.016287, -0.023973, 0.997533, -0.349020, 0.238140, -0.695100, -0.024028, 0.016321, -1.037491
-0.019520, -0.026535, 0.997594, -0.350140, 0.238280, -0.693840, -0.026593, 0.019558, -1.038709
-0.020374, -0.021594, 0.999729, -0.356720, 0.241360, -0.690900, -0.021596, 0.020372, -1.041392
-0.017812, -0.023180, 0.997411, -0.362880, 0.243880, -0.689780, -0.023236, 0.017852, -1.044514
-0.018483, -0.023302, 0.998204, -0.364560, 0.252700, -0.692300, -0.023340, 0.018509, -1.030123
-0.015921, -0.011895, 1.000705, -0.361200, 0.252700, -0.691460, -0.011886, 0.015907, -1.025780
-0.018971, -0.023729, 0.997960, -0.361200, 0.246400, -0.691460, -0.023773, 0.019002, -1.037587
-0.018361, -0.030744, 0.996435, -0.361060, 0.246820, -0.694960, -0.030844, 0.018416, -1.036613
-0.019093, -0.030622, 0.996679, -0.362320, 0.255080, -0.691320, -0.030714, 0.019145, -1.022828
-0.021350, -0.030988, 0.999180, -0.362880, 0.245280, -0.688800, -0.031003, 0.021354, -1.041861
-0.018666, -0.028731, 0.994971, -0.363300, 0.247940, -0.693280, -0.028868, 0.018750, -1.037385
-0.020984, -0.029585, 1.000156, -0.363300, 0.247940, -0.693280, -0.029572, 0.020968, -1.037385
-0.026352, -0.033184, 0.996923, -0.363300, 0.243320, -0.693280, -0.033274, 0.026413, -1.046112
-0.026047, -0.037515, 0.993873, -0.364000, 0.242340, -0.692020, -0.037728, 0.026183, -1.048865
-0.020557, -0.026962, 0.997350, -0.362180, 0.249060, -0.689360, -0.027027, 0.020601, -1.033844
-0.021960, -0.028182, 1.000827, -0.363160, 0.242620, -0.697340, -0.028151, 0.021930, -1.047266
-0.023790, -0.033550, 1.001864, -0.363160, 0.242620, -0.697340, -0.033475, 0.023728, -1.047266
-0.020496, -0.040321, 0.997411, -0.358680, 0.241640, -0.698320, -0.040404, 0.020530, -1.043395
-0.021350, -0.037515, 1.003267, -0.355880, 0.242760, -0.692020, -0.037375, 0.021262, -1.037608
-0.024644, -0.041297, 1.001986, -0.357280, 0.233380, -0.689640, -0.041192, 0.024569, -1.057616
-0.016775, -0.052521, 1.001437, -0.352940, 0.234780, -0.691180, -0.052398, 0.016726, -1.049251
-0.024949, -0.057096, 1.000644, -0.352940, 0.234780, -0.691180, -0.056997, 0.024887, -1.049251
-0.037698, -0.075884, 0.996008, -0.354900, 0.233800, -0.688800, -0.076041, 0.037722, -1.053725
-0.036112, -0.085522, 0.990945, -0.358680, 0.236880, -0.691740, -0.086090, 0.036291, -1.052580
-0.010797, -0.058682, 0.992043, -0.359240, 0.235200, -0.685720, -0.059084, 0.010864, -1.056563
-0.013115, -0.068076, 0.986492, -0.356720, 0.225540, -0.686140, -0.068899, 0.013262, -1.072443
-0.030073, -0.078568, 0.996008, -0.356720, 0.225540, -0.686140, -0.078720, 0.030091, -1.072443
-0.040016, -0.096380, 0.998265, -0.359380, 0.229040, -0.683480, -0.096249, 0.039879, -1.068837
-0.019825, -0.100650, 0.990518, -0.358820, 0.229740, -0.679840, -0.101266, 0.019910, -1.066745
-0.020191, -0.104188, 0.995276, -0.364000, 0.218540, -0.681520, -0.104303, 0.020174, -1.095544
-0.024583, -0.108214, 0.992226, -0.363580, 0.224000, -0.681940, -0.108632, 0.024625, -1.084076
-0.026474, -0.104676, 1.002718, -0.363580, 0.224000, -0.681940, -0.104016, 0.026254, -1.084076
-0.029402, -0.116205, 0.996862, -0.367500, 0.220080, -0.681380, -0.116047, 0.029288, -1.096667
-0.016653, -0.119682, 0.988444, -0.370580, 0.215040, -0.680260, -0.120495, 0.016724, -1.110453
-0.036112, -0.134017, 0.991799, -0.369180, 0.222040, -0.675500, -0.134312, 0.036067, -1.094768
-0.003233, -0.123952, 0.991799, -0.371840, 0.217000, -0.673260, -0.124332, 0.003235, -1.107984
-0.012017, -0.138287, 0.993568, -0.371840, 0.217000, -0.673260, -0.138294, 0.011979, -1.107984
-0.024705, -0.148535, 0.997350, -0.374920, 0.214200, -0.677880, -0.147843, 0.024496, -1.117180
-0.022631, -0.165371, 0.987468, -0.371560, 0.218540, -0.668920, -0.165930, 0.022600, -1.104571
-0.026840, -0.170861, 0.995581, -0.380240, 0.213220, -0.670740, -0.169964, 0.026564, -1.125186
-0.030561, -0.176229, 0.995886, -0.381920, 0.211400, -0.663600, -0.175144, 0.030209, -1.130705
-0.026413, -0.185013, 0.972950, -0.381920, 0.211400, -0.663600, -0.187913, 0.026663, -1.130705
0.011468, -0.190808, 0.970266, -0.385420, 0.218120, -0.662200, -0.194177, -0.011597, -1.121256
0.016897, -0.191357, 0.974170, -0.387100, 0.208320, -0.663460, -0.193961, -0.017018, -1.142542
-0.012566, -0.213012, 0.958432, -0.387520, 0.213500, -0.657720, -0.218696, 0.012798, -1.132682
-0.026169, -0.242170, 0.970144, -0.389760, 0.207060, -0.656600, -0.244624, 0.026165, -1.147912
-0.038308, -0.225456, 0.998631, -0.389760, 0.207060, -0.656600, -0.222043, 0.037401, -1.147912
-0.022265, -0.221735, 0.996496, -0.397460, 0.206640, -0.657020, -0.218948, 0.021806, -1.156805
-0.010004, -0.184586, 1.006195, -0.398860, 0.207200, -0.650300, -0.181432, 0.009779, -1.157136
-0.013237, -0.296399, 0.950868, -0.400260, 0.197540, -0.649460, -0.302169, 0.013289, -1.177789
0.002501, -0.250710, 0.970449, -0.400400, 0.202160, -0.647640, -0.252817, -0.002495, -1.168690
-0.036295, -0.281515, 0.953430, -0.400400, 0.202160, -0.647640, -0.287108, 0.036493, -1.168690
-0.039711, -0.294142, 0.959408, -0.403760, 0.198520, -0.648200, -0.297489, 0.039552, -1.179278
-0.058804, -0.319335, 0.941962, -0.403620, 0.197960, -0.647360, -0.326851, 0.059053, -1.180259
-0.028731, -0.291031, 0.961787, -0.404740, 0.193900, -0.640080, -0.293835, 0.028584, -1.189480
-0.017202, -0.274256, 0.961970, -0.412300, 0.189560, -0.640920, -0.277730, 0.017195, -1.205304
-0.020130, -0.350201, 0.934032, -0.412300, 0.189560, -0.640920, -0.358713, 0.020177, -1.205304
-0.014884, -0.329034, 0.947818, -0.409220, 0.194460, -0.637980, -0.334133, 0.014834, -1.192637
-0.028304, -0.368806, 0.951722, -0.413840, 0.194740, -0.630700, -0.369697, 0.027723, -1.196420
-0.016043, -0.358802, 0.945195, -0.415520, 0.191940, -0.634340, -0.362803, 0.015867, -1.203518
-0.015616, -0.345565, 0.958249, -0.416640, 0.198240, -0.628740, -0.346105, 0.015329, -1.192140
-0.027450, -0.364048, 0.939827, -0.421540, 0.198240, -0.621320, -0.369559, 0.027229, -1.196660
-0.028304, -0.337452, 0.961909, -0.421540, 0.194740, -0.621320, -0.337401, 0.027759, -1.203480
-0.016165, -0.359229, 0.930372, -0.425460, 0.193900, -0.624120, -0.368478, 0.016207, -1.208627
-0.002806, -0.354044, 0.942572, -0.419020, 0.198380, -0.621880, -0.359310, 0.002787, -1.194073
-0.013603, -0.370087, 0.942206, -0.424480, 0.192220, -0.618940, -0.374274, 0.013437, -1.211036
-0.040016, -0.388692, 0.940925, -0.429240, 0.199360, -0.618100, -0.391744, 0.039286, -1.201442
-0.018178, -0.367708, 0.936289, -0.429240, 0.199360, -0.618100, -0.374223, 0.018069, -1.201442
-0.030195, -0.388814, 0.929823, -0.431200, 0.191940, -0.615160, -0.396062, 0.029951, -1.217450
-0.027877, -0.395890, 0.925614, -0.435960, 0.190260, -0.612920, -0.404160, 0.027684, -1.224746
0.021838, -0.403576, 0.907497, -0.437360, 0.194600, -0.612500, -0.418449, -0.021984, -1.217606
-0.001586, -0.401502, 0.918355, -0.440300, 0.188440, -0.615440, -0.412156, 0.001582, -1.231853
-0.007564, -0.412238, 0.913414, -0.440300, 0.188440, -0.615440, -0.423947, 0.007548, -1.231853
-0.007747, -0.423645, 0.907314, -0.438620, 0.188160, -0.611660, -0.436837, 0.007736, -1.231008
-0.007869, -0.417728, 0.926834, -0.441700, 0.193900, -0.611380, -0.423439, 0.007740, -1.222589
-0.030195, -0.413153, 0.923479, -0.446040, 0.188860, -0.613340, -0.420679, 0.029837, -1.235719
-0.006161, -0.421571, 0.887123, -0.444360, 0.191800, -0.607740, -0.443621, 0.006273, -1.228772
-0.019337, -0.399123, 0.910181, -0.444360, 0.191800, -0.607740, -0.413257, 0.019454, -1.228772
-0.022204, -0.409676, 0.898591, -0.445480, 0.192080, -0.607320, -0.427757, 0.022480, -1.229157
-0.006771, -0.400404, 0.899994, -0.455280, 0.190680, -0.601580, -0.418602, 0.006874, -1.239622
-0.070760, -0.330132, 0.956175, -0.449120, 0.196700, -0.604800, -0.332449, 0.069837, -1.223443
-0.230580, -0.237473, 1.234091, -0.450240, 0.196140, -0.599620, -0.190104, 0.181458, -1.225403
-0.032269, -0.431758, 0.704916, -0.450240, 0.196140, -0.599620, -0.549557, 0.039017, -1.225403
0.008784, -0.487817, 0.846863, -0.454300, 0.189840, -0.604520, -0.522607, -0.008988, -1.240427
0.014091, -0.405101, 0.908778, -0.452900, 0.186340, -0.599760, -0.419326, -0.014161, -1.245919
-0.130479, -0.319213, 1.043771, -0.453320, 0.181160, -0.601580, -0.296794, 0.118977, -1.256059
0.037393, -0.421876, 0.869128, -0.448000, 0.191100, -0.599900, -0.451901, -0.038686, -1.233053
-0.108580, -0.400770, 0.825513, -0.448000, 0.191100, -0.599900, -0.451964, 0.117776, -1.233053
0.002501, -0.406321, 0.945439, -0.453880, 0.192360, -0.601860, -0.405904, -0.002430, -1.235382
-0.027206, -0.410347, 0.936838, -0.454440, 0.190260, -0.596400, -0.412841, 0.026594, -1.239750
-0.020618, -0.427488, 0.913231, -0.450660, 0.198100, -0.602700, -0.437808, 0.020445, -1.222093
-0.012200, -0.435540, 0.898042, -0.458080, 0.188020, -0.595980, -0.451566, 0.012223, -1.246762
-0.005246, -0.436394, 0.888953, -0.458080, 0.188020, -0.595980, -0.456347, 0.005297, -1.246762
-0.057279, -0.423767, 0.910120, -0.458640, 0.196840, -0.594720, -0.435765, 0.056992, -1.230839
-0.012810, -0.408761, 0.918843, -0.462140, 0.199500, -0.595980, -0.418575, 0.012737, -1.228725
-0.114802, -0.475861, 0.852719, -0.463400, 0.199360, -0.607600, -0.509004, 0.117026, -1.229970
0.008906, -0.414373, 0.913536, -0.457800, 0.206780, -0.605220, -0.425837, -0.008878, -1.211994
-0.053131, -0.396256, 0.955443, -0.457800, 0.206780, -0.605220, -0.393144, 0.051321, -1.211994
-0.028548, -0.412177, 0.931958, -0.462700, 0.204960, -0.606060, -0.416407, 0.028007, -1.219258
-0.003233, -0.410164, 0.958005, -0.466200, 0.202160, -0.600040, -0.404531, 0.003102, -1.227086
-0.118462, -0.386618, 0.977891, -0.468160, 0.208880, -0.596120, -0.376499, 0.112182, -1.216580
0.017690, -0.486536, 0.876692, -0.470540, 0.203280, -0.596120, -0.506649, -0.017641, -1.228449
-0.019520, -0.442067, 0.913902, -0.470540, 0.203280, -0.596120, -0.450534, 0.019225, -1.228449
-0.079178, -0.404735, 0.886879, -0.472500, 0.204960, -0.593320, -0.428129, 0.081041, -1.226964
-0.062708, -0.388997, 0.879803, -0.478520, 0.211120, -0.587160, -0.416299, 0.065095, -1.220740
0.037393, -0.544425, 0.852109, -0.490140, 0.202580, -0.581840, -0.568543, -0.036963, -1.244318
0.006832, -0.559065, 0.830515, -0.491400, 0.213500, -0.576240, -0.592481, -0.006824, -1.226379
-0.040260, -0.529968, 0.878400, -0.491400, 0.213500, -0.576240, -0.542867, 0.039224, -1.226379
0.026413, -0.489769, 0.806298, -0.493220, 0.212940, -0.567000, -0.545864, -0.027991, -1.228685
-0.024522, -0.548024, 0.905240, -0.498260, 0.207620, -0.568260, -0.544374, 0.023169, -1.241435
-0.075091, -0.497333, 0.923967, -0.500500, 0.212240, -0.564760, -0.493784, 0.071440, -1.235175
-0.047092, -0.537532, 0.883036, -0.509740, 0.206780, -0.561400, -0.546815, 0.045522, -1.250872
-0.060390, -0.530273, 0.880291, -0.509740, 0.206780, -0.561400, -0.542170, 0.058697, -1.250872
-0.041846, -0.594262, 0.876692, -0.512260, 0.213500, -0.556780, -0.595702, 0.039490, -1.241358
-0.033977, -0.590968, 0.800259, -0.513660, 0.213780, -0.551880, -0.636082, 0.034141, -1.241862
-0.033855, -0.590480, 0.817522, -0.519120, 0.208180, -0.540260, -0.625523, 0.033558, -1.254857
-0.045689, -0.581025, 0.825391, -0.522200, 0.216300, -0.539140, -0.613365, 0.045233, -1.243551
-0.005612, -0.621956, 0.787022, -0.521360, 0.208600, -0.533260, -0.668777, 0.005595, -1.255647
-0.017385, -0.627934, 0.776347, -0.521360, 0.208600, -0.533260, -0.680103, 0.017409, -1.255647
-0.023851, -0.636108, 0.768905, -0.526960, 0.211540, -0.527660, -0.691162, 0.023896, -1.254504
-0.020862, -0.644282, 0.754082, -0.527940, 0.212940, -0.531440, -0.707039, 0.021031, -1.252863
-0.038918, -0.630557, 0.793366, -0.532280, 0.203980, -0.524580, -0.671554, 0.038384, -1.270289
-0.036783, -0.645868, 0.777872, -0.533680, 0.211120, -0.522620, -0.692946, 0.036365, -1.259545
0.004087, -0.674233, 0.749690, -0.533680, 0.211120, -0.522620, -0.732455, -0.004053, -1.259545
-0.009028, -0.668804, 0.770430, -0.531440, 0.206500, -0.519960, -0.714904, 0.008849, -1.265635
-0.020008, -0.649650, 0.793793, -0.536200, 0.201600, -0.511000, -0.685868, 0.019503, -1.276617
0.001098, -0.662765, 0.752618, -0.537460, 0.204540, -0.511700, -0.722000, -0.001095, -1.272603
-0.000366, -0.667279, 0.764452, -0.535080, 0.199360, -0.515060, -0.717631, 0.000361, -1.279599
-0.008601, -0.678747, 0.748653, -0.535080, 0.199360, -0.515060, -0.736463, 0.008511, -1.279599
-0.019093, -0.683810, 0.747555, -0.534660, 0.203980, -0.511000, -0.740893, 0.018843, -1.271777
-0.029585, -0.689666, 0.741821, -0.533260, 0.205240, -0.508060, -0.748980, 0.029200, -1.268844
-0.002318, -0.701378, 0.728584, -0.537880, 0.195300, -0.502320, -0.766375, 0.002292, -1.287956
-0.019764, -0.695156, 0.759084, -0.534240, 0.200900, -0.501620, -0.741467, 0.019199, -1.276557
-0.002013, -0.717421, 0.738771, -0.534240, 0.200900, -0.501620, -0.770738, 0.001955, -1.276557
0.032086, -0.712358, 0.762073, -0.536620, 0.194320, -0.495180, -0.751693, -0.030748, -1.288816
-0.011346, -0.707173, 0.715103, -0.539700, 0.191800, -0.501900, -0.779823, 0.011281, -1.294784
-0.023790, -0.703696, 0.734928, -0.543900, 0.199920, -0.488040, -0.763692, 0.023377, -1.284007
-0.021655, -0.720349, 0.710833, -0.545300, 0.193480, -0.481600, -0.792047, 0.021395, -1.295289
-0.002501, -0.737673, 0.679418, -0.545300, 0.193480, -0.481600, -0.826484, 0.002494, -1.295289
-0.000915, -0.743529, 0.677588, -0.543620, 0.195860, -0.477820, -0.831766, 0.000910, -1.290435
0.008235, -0.747067, 0.677771, -0.546000, 0.192500, -0.475020, -0.833994, -0.008164, -1.297289
0.010675, -0.752557, 0.667889, -0.548660, 0.185780, -0.478660, -0.844934, -0.010609, -1.309757
0.009821, -0.753228, 0.668133, -0.545300, 0.189840, -0.475720, -0.845196, -0.009754, -1.301231
0.006588, -0.751154, 0.669536, -0.545300, 0.189840, -0.475720, -0.842785, -0.006547, -1.301231
0.003965, -0.740479, 0.696010, -0.549920, 0.187040, -0.471800, -0.816345, -0.003902, -1.308398
-0.004575, -0.741455, 0.690825, -0.545860, 0.189000, -0.476280, -0.820733, 0.004514, -1.302923
0.009333, -0.748043, 0.676978, -0.547400, 0.192780, -0.483560, -0.835226, -0.009250, -1.297636
-0.014579, -0.729011, 0.724802, -0.547540, 0.194040, -0.480620, -0.788293, 0.014181, -1.295670
-0.015128, -0.741211, 0.715103, -0.547540, 0.194040, -0.480620, -0.803324, 0.014687, -1.295670
0.014884, -0.743285, 0.705404, -0.547540, 0.198800, -0.479920, -0.811541, -0.014524, -1.287968
0.017568, -0.747006, 0.689178, -0.542360, 0.192360, -0.479220, -0.825641, -0.017284, -1.295415
0.016592, -0.748897, 0.688080, -0.547120, 0.186620, -0.474600, -0.827696, -0.016313, -1.307526
0.010309, -0.751032, 0.678991, -0.548520, 0.188720, -0.471660, -0.835733, -0.010182, -1.304879
0.011651, -0.753655, 0.663558, -0.548520, 0.188720, -0.471660, -0.848886, -0.011602, -1.304879
0.009272, -0.751459, 0.670390, -0.546140, 0.187460, -0.475860, -0.842353, -0.009207, -1.305601
0.008174, -0.753167, 0.674416, -0.545580, 0.186200, -0.473760, -0.840506, -0.008085, -1.307353
0.019154, -0.750727, 0.698145, -0.543340, 0.186480, -0.475440, -0.821674, -0.018681, -1.305633
0.020862, -0.758413, 0.692594, -0.543200, 0.184240, -0.476000, -0.830728, -0.020309, -1.309247
0.026901, -0.757803, 0.684481, -0.543200, 0.184240, -0.476000, -0.836192, -0.026337, -1.309247
0.011834, -0.750483, 0.696864, -0.546840, 0.186480, -0.468300, -0.822428, -0.011555, -1.307599
0.004758, -0.748287, 0.697108, -0.546840, 0.187040, -0.470120, -0.820792, -0.004652, -1.306682
0.006771, -0.761707, 0.673501, -0.547400, 0.185360, -0.474740, -0.846780, -0.006659, -1.309746
0.002074, -0.746335, 0.678930, -0.547120, 0.194600, -0.467320, -0.832656, -0.002056, -1.294520
0.001769, -0.776713, 0.650138, -0.547120, 0.194600, -0.467320, -0.873876, -0.001746, -1.294520
0.017324, -0.773541, 0.635071, -0.550060, 0.189280, -0.463680, -0.883386, -0.017308, -1.304830
0.018483, -0.777140, 0.640317, -0.555100, 0.187040, -0.460740, -0.881627, -0.018353, -1.311246
0.004636, -0.771101, 0.651785, -0.552160, 0.193060, -0.460740, -0.869057, -0.004592, -1.299888
0.032513, -0.790865, 0.624213, -0.553000, 0.183680, -0.459480, -0.902627, -0.032259, -1.315559
0.036051, -0.788730, 0.629398, -0.553000, 0.183680, -0.456400, -0.897283, -0.035712, -1.315559
0.019520, -0.779824, 0.636047, -0.555380, 0.189560, -0.456400, -0.886598, -0.019395, -1.307329
0.017446, -0.776469, 0.646173, -0.552580, 0.185920, -0.458220, -0.876731, -0.017269, -1.311686
0.013115, -0.766526, 0.659959, -0.559160, 0.183120, -0.459480, -0.859966, -0.012965, -1.319763
0.002928, -0.758596, 0.669231, -0.554960, 0.196140, -0.461860, -0.847905, -0.002894, -1.296518
0.009272, -0.758047, 0.669231, -0.556780, 0.189560, -0.464800, -0.847546, -0.009169, -1.308097
0.014030, -0.757132, 0.670390, -0.556780, 0.189560, -0.464800, -0.846088, -0.013873, -1.308097
0.011590, -0.736514, 0.676368, -0.557060, 0.193620, -0.471100, -0.827942, -0.011590, -1.301733
0.017751, -0.763171, 0.667035, -0.547400, 0.198100, -0.478520, -0.852515, -0.017511, -1.289016
0.027328, -0.556076, 0.799954, -0.552720, 0.193340, -0.481740, -0.607453, -0.028043, -1.299752
-0.012749, -0.576877, 0.795074, -0.547960, 0.194180, -0.479640, -0.627678, 0.012978, -1.295684
-0.044591, -0.752679, 0.684847, -0.547960, 0.194180, -0.479640, -0.832550, 0.043791, -1.295684
-0.015189, -0.688629, 0.832284, -0.546840, 0.192920, -0.492240, -0.691224, 0.014060, -1.297087
-0.043554, -0.660081, 0.826123, -0.545160, 0.192220, -0.493500, -0.674137, 0.041165, -1.297263
0.015494, -0.712419, 0.756583, -0.538720, 0.200620, -0.501480, -0.755343, -0.014908, -1.279756
0.029524, -0.691130, 0.746457, -0.541240, 0.189980, -0.501340, -0.746931, -0.029014, -1.298673
-0.032879, -0.654591, 0.782081, -0.541240, 0.189980, -0.501340, -0.696890, 0.032227, -1.298673
-0.002806, -0.671061, 0.758840, -0.530040, 0.192640, -0.508340, -0.724087, 0.002770, -1.287645
-0.010919, -0.660569, 0.771101, -0.526120, 0.189840, -0.516740, -0.708346, 0.010753, -1.289956
-0.010004, -0.648369, 0.780068, -0.526400, 0.185220, -0.519400, -0.693460, 0.009862, -1.297914
0.004270, -0.638182, 0.772931, -0.520240, 0.194040, -0.527380, -0.690196, -0.004260, -1.279246
-0.007930, -0.623725, 0.773724, -0.520240, 0.194040, -0.527380, -0.678470, 0.007979, -1.279246
-0.015616, -0.614514, 0.790926, -0.517720, 0.192080, -0.524020, -0.660530, 0.015590, -1.280977
-0.044042, -0.626653, 0.811483, -0.516460, 0.189280, -0.530880, -0.657578, 0.042930, -1.284953
-0.022143, -0.602741, 0.827099, -0.505820, 0.195440, -0.536760, -0.629756, 0.021633, -1.267534
-0.021106, -0.593042, 0.827404, -0.503720, 0.188160, -0.532560, -0.621880, 0.020730, -1.278755
-0.028487, -0.587979, 0.822036, -0.503720, 0.188160, -0.532560, -0.620902, 0.028179, -1.278755
-0.016836, -0.585905, 0.821609, -0.500780, 0.190120, -0.537180, -0.619477, 0.016682, -1.273407
-0.022265, -0.573705, 0.829478, -0.494060, 0.189560, -0.540260, -0.605097, 0.022073, -1.269889
-0.029341, -0.561261, 0.854549, -0.491540, 0.183960, -0.545440, -0.581135, 0.028691, -1.278131
-0.029036, -0.554978, 0.852414, -0.489720, 0.191240, -0.546560, -0.577124, 0.028538, -1.263949
-0.027755, -0.550708, 0.849669, -0.489720, 0.191240, -0.546560, -0.575069, 0.027405, -1.263949
-0.034526, -0.543571, 0.848083, -0.488040, 0.185640, -0.552440, -0.569980, 0.034261, -1.272768
-0.034160, -0.536251, 0.851804, -0.490000, 0.192500, -0.559020, -0.561863, 0.033925, -1.261913
-0.036112, -0.531066, 0.845094, -0.485240, 0.202580, -0.556920, -0.561048, 0.036165, -1.240759
-0.038552, -0.526491, 0.843630, -0.483000, 0.196420, -0.569520, -0.557936, 0.038748, -1.250006
-0.045628, -0.510509, 0.868823, -0.483000, 0.196420, -0.569520, -0.531242, 0.045248, -1.250006
-0.058438, -0.498919, 0.876204, -0.479080, 0.203420, -0.565740, -0.517623, 0.057893, -1.234710
-0.057462, -0.483059, 0.880047, -0.480340, 0.206360, -0.571480, -0.501999, 0.057176, -1.230475
-0.067344, -0.484523, 0.902983, -0.487060, 0.208320, -0.573020, -0.492482, 0.065622, -1.232083
-0.045750, -0.433710, 0.897798, -0.481320, 0.218960, -0.580860, -0.450022, 0.045852, -1.209312
-0.031903, -0.468419, 0.905850, -0.481320, 0.218960, -0.580860, -0.477237, 0.031274, -1.209312
-0.051789, -0.456463, 0.886147, -0.474740, 0.208740, -0.582540, -0.475662, 0.051908, -1.221996
-0.061854, -0.383568, 0.907314, -0.475020, 0.211680, -0.592620, -0.399964, 0.062710, -1.217038
-0.047702, -0.410347, 0.928237, -0.467740, 0.215320, -0.591500, -0.416241, 0.046967, -1.204826
-0.059170, -0.432673, 0.906033, -0.469420, 0.212380, -0.598080, -0.445524, 0.058864, -1.211373
-0.058255, -0.380762, 0.925187, -0.469420, 0.212380, -0.598080, -0.390425, 0.058162, -1.211373
-0.050630, -0.390156, 0.931653, -0.463960, 0.220220, -0.602000, -0.396589, 0.050084, -1.193081
-0.069662, -0.339953, 0.966789, -0.457100, 0.219800, -0.612080, -0.338127, 0.067871, -1.188029
-0.065270, -0.341539, 0.951966, -0.457940, 0.217280, -0.614320, -0.344468, 0.064446, -1.193228
-0.076067, -0.289018, 0.953308, -0.451360, 0.228480, -0.613620, -0.294366, 0.076213, -1.167648
-0.050874, -0.254553, 1.001437, -0.451360, 0.228480, -0.613620, -0.248916, 0.049196, -1.167648
-0.053192, -0.306159, 0.963007, -0.448560, 0.224280, -0.614040, -0.307815, 0.052591, -1.172599
-0.032696, -0.279563, 0.957822, -0.449540, 0.221900, -0.622720, -0.283985, 0.032757, -1.177719
-0.037942, -0.319762, 0.964349, -0.441140, 0.225400, -0.626360, -0.320175, 0.037328, -1.163878
-0.059414, -0.282247, 0.972340, -0.445480, 0.224700, -0.623420, -0.282512, 0.058615, -1.169085
-0.059414, -0.274012, 0.979965, -0.441420, 0.224700, -0.632100, -0.272651, 0.058323, -1.165393
-0.057767, -0.270718, 0.972584, -0.441420, 0.229320, -0.632100, -0.271477, 0.057158, -1.157116
-0.049288, -0.273219, 0.959347, -0.438480, 0.226380, -0.634340, -0.277451, 0.049372, -1.159657
-0.064721, -0.260470, 0.962519, -0.442400, 0.231700, -0.633920, -0.264283, 0.064816, -1.153792
-0.051972, -0.245220, 0.949465, -0.436940, 0.234220, -0.635740, -0.252749, 0.052950, -1.144179
-0.089121, -0.255041, 0.963983, -0.438900, 0.232400, -0.640500, -0.258644, 0.089139, -1.149274
-0.069357, -0.246928, 0.962885, -0.438900, 0.232400, -0.640500, -0.251036, 0.069660, -1.149274
-0.071370, -0.230153, 0.967399, -0.432180, 0.232680, -0.643020, -0.233567, 0.071649, -1.142363
-0.082838, -0.220027, 0.979294, -0.427420, 0.236040, -0.649880, -0.221009, 0.082345, -1.131682
-0.072407, -0.205753, 0.976915, -0.427420, 0.231980, -0.650300, -0.207581, 0.072400, -1.138990
-0.060207, -0.204716, 0.975756, -0.420420, 0.239820, -0.653380, -0.206803, 0.060315, -1.117854
-0.129137, -0.214964, 0.957456, -0.420420, 0.239820, -0.653380, -0.220854, 0.130847, -1.117854
-0.066124, -0.190198, 0.974780, -0.411180, 0.233380, -0.659400, -0.192698, 0.066481, -1.120002
-0.065453, -0.269498, 0.929579, -0.409220, 0.225820, -0.665980, -0.282178, 0.067524, -1.131999
-0.046848, -0.189344, 0.972096, -0.396060, 0.229460, -0.664860, -0.192370, 0.047269, -1.111144
-0.061610, -0.142008, 0.991677, -0.395780, 0.219660, -0.665700, -0.142233, 0.061422, -1.129568
-0.069052, -0.117303, 1.017602, -0.395780, 0.219660, -0.665700, -0.114767, 0.067309, -1.129568
-0.063745, -0.067405, 1.021506, -0.386260, 0.217280, -0.669900, -0.065890, 0.062187, -1.123839
-0.029341, -0.113948, 0.995581, -0.377440, 0.220780, -0.674940, -0.113958, 0.029272, -1.106973
-0.043798, -0.046421, 1.022238, -0.367500, 0.210280, -0.676060, -0.045380, 0.042775, -1.116526
-0.047946, -0.038308, 1.020530, -0.356860, 0.208320, -0.673540, -0.037520, 0.046914, -1.107855
-0.018056, -0.088633, 1.005951, -0.356860, 0.208320, -0.673540, -0.087882, 0.017878, -1.107855
-0.048495, -0.020130, 1.009855, -0.346780, 0.199220, -0.679980, -0.019931, 0.047975, -1.114799
-0.032574, -0.033916, 0.998448, -0.343980, 0.196420, -0.676760, -0.033956, 0.032594, -1.117407
-0.054595, -0.051972, 0.997045, -0.336840, 0.197680, -0.679000, -0.052079, 0.054628, -1.105540
-0.007747, -0.128771, 0.990152, -0.339080, 0.191100, -0.676620, -0.129326, 0.007759, -1.123034
-0.024644, -0.101504, 0.978257, -0.339080, 0.191100, -0.676620, -0.103390, 0.025052, -1.123034
-0.048434, -0.059597, 0.991982, -0.340340, 0.192780, -0.682500, -0.060007, 0.048699, -1.120874
-0.038125, 0.014152, 0.985028, -0.338800, 0.191520, -0.686700, 0.014366, 0.038681, -1.121740
-0.037149, -0.000183, 0.925126, -0.340060, 0.187320, -0.690900, -0.000198, 0.040134, -1.132755
0.056547, -0.055693, 0.999363, -0.327040, 0.188580, -0.684460, -0.055671, -0.056435, -1.113190
-0.038979, -0.025986, 0.998631, -0.327040, 0.188580, -0.684460, -0.026016, 0.038999, -1.113190
-0.021655, -0.074969, 1.017419, -0.333200, 0.184380, -0.680540, -0.073553, 0.021224, -1.130826
-0.042517, -0.014762, 0.991799, -0.336140, 0.187180, -0.685860, -0.014883, 0.042838, -1.128158
-0.036417, -0.023302, 0.992104, -0.328160, 0.186760, -0.683060, -0.023483, 0.036680, -1.118848
-0.033733, -0.011346, 0.997411, -0.328720, 0.183400, -0.687960, -0.011375, 0.033805, -1.127341
-0.031903, -0.018422, 0.992592, -0.328720, 0.183400, -0.687960, -0.018557, 0.032125, -1.127341
-0.033001, -0.009821, 0.995642, -0.324520, 0.190540, -0.685020, -0.009864, 0.033132, -1.105333
-0.035624, -0.006649, 0.997899, -0.326200, 0.185080, -0.685860, -0.006663, 0.035683, -1.120156
-0.024400, -0.014457, 0.995398, -0.327040, 0.185080, -0.690480, -0.014523, 0.024505, -1.121259
-0.031415, -0.007503, 0.995459, -0.324800, 0.187180, -0.691880, -0.007537, 0.031547, -1.113441
-0.035746, 0.000183, 0.993202, -0.324800, 0.187180, -0.691880, 0.000184, 0.035975, -1.113441
-0.049898, 0.005307, 0.990091, -0.325780, 0.182980, -0.692300, 0.005360, 0.050354, -1.124489
-0.023241, -0.005673, 0.997411, -0.328300, 0.185080, -0.688940, -0.005688, 0.023297, -1.122906
-0.044042, 0.005124, 0.996374, -0.321020, 0.188160, -0.685860, 0.005143, 0.044173, -1.106086
-0.010980, -0.022875, 0.995581, -0.326200, 0.182840, -0.691040, -0.022972, 0.011025, -1.125366
-0.030439, 0.001281, 0.996618, -0.326200, 0.182840, -0.691040, 0.001285, 0.030533, -1.125366
-0.022448, 0.002074, 0.993446, -0.320880, 0.190820, -0.694680, 0.002088, 0.022592, -1.099750
-0.028548, 0.008967, 0.993995, -0.322280, 0.192780, -0.693280, 0.009021, 0.028711, -1.097169
-0.042212, 0.003416, 0.996008, -0.325220, 0.191100, -0.697060, 0.003430, 0.042356, -1.104993
-0.023729, 0.005612, 0.998570, -0.322560, 0.197820, -0.695380, 0.005620, 0.023758, -1.086118
-0.026962, 0.012688, 0.993934, -0.322560, 0.197820, -0.695380, 0.012765, 0.027118, -1.086118
-0.028548, 0.013359, 0.997411, -0.320320, 0.189840, -0.697060, 0.013393, 0.028612, -1.101243
-0.026047, 0.011224, 0.997716, -0.323540, 0.195300, -0.697480, 0.011249, 0.026099, -1.093158
-0.026718, 0.012505, 1.003267, -0.316540, 0.194600, -0.693560, 0.012464, 0.026623, -1.085035
-0.024278, 0.017812, 0.997960, -0.325500, 0.194740, -0.693700, 0.017847, 0.024319, -1.097093
-0.020862, 0.019337, 0.997960, -0.321580, 0.195720, -0.701120, 0.019374, 0.020898, -1.089513
-0.032330, 0.019947, 1.007720, -0.321580, 0.195720, -0.701120, 0.019792, 0.032065, -1.089513
-0.022875, 0.017995, 1.008696, -0.320740, 0.196560, -0.695100, 0.017838, 0.022670, -1.086444
-0.023241, 0.033794, 0.999302, -0.325640, 0.196000, -0.702100, 0.033805, 0.023240, -1.094437
-0.028121, 0.042029, 0.999241, -0.317940, 0.198940, -0.703920, 0.042036, 0.028110, -1.077132
-0.020008, 0.051789, 0.990396, -0.318080, 0.195720, -0.706440, 0.052244, 0.020172, -1.084640
-0.022082, 0.060512, 0.991677, -0.318080, 0.195720, -0.706440, 0.060944, 0.022222, -1.084640
-0.028609, 0.067100, 0.995520, -0.311920, 0.197680, -0.703360, 0.067300, 0.028665, -1.071378
-0.035929, 0.075091, 1.013515, -0.310520, 0.195580, -0.700140, 0.073955, 0.035338, -1.074169
-0.028182, 0.077592, 1.000644, -0.307440, 0.190960, -0.709240, 0.077387, 0.028072, -1.080435
-0.027633, 0.087413, 1.005890, -0.303520, 0.197540, -0.706580, 0.086683, 0.027361, -1.059288
-0.029707, 0.066490, 1.002108, -0.303520, 0.197540, -0.706580, 0.066253, 0.029571, -1.059288
-0.045323, 0.127734, 1.003694, -0.296660, 0.197400, -0.706300, 0.126583, 0.044765, -1.049115
0.001342, 0.090158, 1.002596, -0.293720, 0.203000, -0.709100, 0.089683, -0.001333, -1.031495
-0.014823, 0.116144, 1.000766, -0.282660, 0.204960, -0.708260, 0.115538, 0.014712, -1.008865
-0.022143, 0.207522, 0.984479, -0.276920, 0.202580, -0.722680, 0.207752, 0.022005, -1.004660
-0.016531, 0.190137, 0.959957, -0.276920, 0.202580, -0.722680, 0.195537, 0.016891, -1.004660
-0.026840, 0.206241, 0.964593, -0.269080, 0.206780, -0.717220, 0.210640, 0.027203, -0.981028
-0.013786, 0.217099, 0.941352, -0.260960, 0.211260, -0.715260, 0.226662, 0.014269, -0.955710
-0.017263, 0.228811, 0.945134, -0.259980, 0.208740, -0.721000, 0.237524, 0.017750, -0.959735
-0.021106, 0.228323, 0.959835, -0.254800, 0.208880, -0.717920, 0.233537, 0.021389, -0.949560
-0.031964, 0.239242, 0.955809, -0.254800, 0.208880, -0.717920, 0.245264, 0.032430, -0.949560
-0.017507, 0.245769, 0.950563, -0.247380, 0.204540, -0.722820, 0.253010, 0.017829, -0.945361
-0.035990, 0.251137, 0.959835, -0.248080, 0.205380, -0.719040, 0.255909, 0.036259, -0.944736
-0.015067, 0.251991, 0.966606, -0.238280, 0.210000, -0.718060, 0.255021, 0.015082, -0.913850
-0.000549, 0.240462, 0.961543, -0.244020, 0.201740, -0.715540, 0.245053, 0.000554, -0.945414
-0.000305, 0.247416, 0.985882, -0.244020, 0.201740, -0.715540, 0.245881, 0.000300, -0.945414
-0.023851, 0.257359, 0.984296, -0.241640, 0.207900, -0.721280, 0.255740, 0.023439, -0.925762
-0.025437, 0.293593, 0.976488, -0.237580, 0.207480, -0.721700, 0.292064, 0.024941, -0.918377
-0.015799, 0.315370, 0.953369, -0.232120, 0.204960, -0.722680, 0.319465, 0.015732, -0.912908
-0.039162, 0.310856, 0.950136, -0.218820, 0.203560, -0.726740, 0.316193, 0.039154, -0.886961
-0.015189, 0.288469, 0.933239, -0.218820, 0.203560, -0.726740, 0.299789, 0.015548, -0.886961
-0.024888, 0.345077, 0.925431, -0.211820, 0.197120, -0.720720, 0.356913, 0.025193, -0.886779
-0.025132, 0.356728, 0.909205, -0.205800, 0.203280, -0.729540, 0.373896, 0.025726, -0.857008
-0.030317, 0.348371, 0.925309, -0.196980, 0.203420, -0.723800, 0.360078, 0.030653, -0.834765
-0.068625, 0.339465, 0.907497, -0.192360, 0.198380, -0.723240, 0.357953, 0.070709, -0.835443
-0.022204, 0.336659, 0.914329, -0.192360, 0.198380, -0.723240, 0.352799, 0.022785, -0.835443
-0.048068, 0.377651, 0.875411, -0.185920, 0.208320, -0.721700, 0.407278, 0.050375, -0.794091
-0.041053, 0.480680, 0.882975, -0.178360, 0.208320, -0.721280, 0.498524, 0.040812, -0.773522
-0.021716, 0.356423, 0.901336, -0.173180, 0.206500, -0.723520, 0.376568, 0.022401, -0.763314
-0.025193, 0.506300, 0.890783, -0.162540, 0.212240, -0.717220, 0.516842, 0.024583, -0.719006
-0.026901, 0.333121, 0.887916, -0.162540, 0.212240, -0.717220, 0.358921, 0.028359, -0.719006
-0.001464, 0.376553, 0.898286, -0.163940, 0.209020, -0.718480, 0.396940, 0.001503, -0.730561
-0.052155, 0.400892, 0.847107, -0.151620, 0.211820, -0.721140, 0.442018, 0.055594, -0.686699
-0.013847, 0.380030, 0.834297, -0.140420, 0.210980, -0.714280, 0.427426, 0.015103, -0.652686
-0.014762, 0.600789, 0.819840, -0.135100, 0.209300, -0.717220, 0.632410, 0.014523, -0.638644
-0.041358, 0.623115, 0.810568, -0.135100, 0.209300, -0.717220, 0.655386, 0.040430, -0.638644
0.011346, 0.628666, 0.855952, -0.131320, 0.216300, -0.715960, 0.633484, -0.010683, -0.611088
-0.002440, 0.544242, 0.837164, -0.129500, 0.216300, -0.711620, 0.576447, 0.002444, -0.604917
-0.014945, 0.502457, 0.786717, -0.125440, 0.216580, -0.718340, 0.568373, 0.016009, -0.590424
-0.065270, 0.436821, 0.827587, -0.120540, 0.223440, -0.706720, 0.485659, 0.069635, -0.560176
0.002623, 0.543632, 0.829844, -0.120540, 0.223440, -0.706720, 0.579953, -0.002644, -0.560176
-0.056669, 0.538386, 0.823073, -0.114660, 0.214620, -0.706440, 0.579264, 0.057555, -0.556118
-0.022448, 0.654225, 0.785009, -0.108360, 0.218680, -0.706580, 0.694776, 0.021964, -0.525506
-0.048495, 0.514352, 0.790560, -0.099120, 0.214480, -0.701680, 0.576809, 0.051373, -0.498354
-0.091927, 0.649101, 0.733220, -0.089880, 0.213220, -0.705460, 0.724620, 0.093600, -0.464383
-0.107726, 0.461404, 0.788242, -0.084840, 0.217140, -0.698600, 0.529584, 0.117403, -0.437927
-0.051606, 0.569984, 0.739503, -0.084840, 0.217140, -0.698600, 0.656660, 0.055216, -0.437927
-0.089426, 0.685091, 0.719190, -0.071960, 0.216300, -0.697760, 0.761121, 0.089790, -0.386618
-0.095038, 0.588589, 0.708576, -0.068460, 0.216580, -0.699440, 0.693161, 0.102809, -0.371607
-0.094245, 0.664473, 0.646539, -0.057540, 0.224980, -0.693840, 0.799077, 0.101306, -0.315839
-0.085766, 0.647515, 0.698206, -0.061460, 0.214760, -0.696500, 0.747748, 0.089825, -0.344180
-0.063196, 0.676612, 0.738710, -0.061460, 0.214760, -0.696500, 0.741551, 0.063002, -0.344180
-0.055876, 0.693143, 0.737185, -0.062160, 0.223300, -0.693840, 0.754616, 0.055164, -0.336946
-0.088877, 0.655994, 0.749507, -0.058380, 0.222460, -0.690760, 0.718962, 0.088995, -0.322092
-0.113216, 0.727181, 0.648308, -0.054040, 0.222040, -0.691600, 0.842677, 0.115694, -0.304188
-0.054534, 0.696864, 0.724558, -0.050680, 0.231280, -0.688100, 0.765917, 0.054194, -0.281169
-0.117059, 0.719190, 0.663680, -0.050680, 0.231280, -0.688100, 0.825518, 0.119050, -0.281169
-0.109434, 0.767441, 0.630435, -0.046200, 0.228200, -0.687960, 0.883096, 0.109742, -0.265204
-0.096746, 0.665144, 0.652822, -0.037380, 0.232400, -0.684180, 0.794747, 0.103436, -0.224927
-0.090951, 0.668743, 0.638060, -0.029120, 0.236880, -0.676620, 0.808873, 0.098084, -0.187768
-0.126514, 0.788425, 0.601277, -0.022120, 0.235900, -0.668500, 0.919261, 0.126908, -0.158945
-0.109007, 0.745908, 0.543449, -0.022120, 0.235900, -0.668500, 0.941150, 0.117571, -0.158945
-0.115229, 0.753838, 0.505873, -0.014840, 0.245700, -0.663180, 0.979756, 0.126251, -0.125775
-0.105896, 0.804773, 0.528992, -0.011760, 0.248920, -0.655620, 0.989294, 0.109517, -0.112659
-0.069601, 0.846680, 0.530578, -0.008120, 0.247520, -0.655760, 1.011006, 0.069545, -0.098244
-0.077775, 0.814289, 0.535397, -0.000700, 0.248220, -0.648480, 0.989165, 0.079639, -0.068270
-0.096807, 0.815021, 0.536800, -0.000700, 0.248220, -0.648480, 0.988376, 0.098872, -0.068270
-0.131882, 0.813130, 0.542351, -0.002940, 0.249760, -0.653100, 0.982569, 0.134120, -0.077221
-0.136030, 0.786107, 0.555710, -0.000700, 0.253680, -0.654080, 0.955445, 0.140372, -0.068209
-0.101016, 0.825513, 0.547902, 0.004900, 0.256620, -0.647500, 0.984843, 0.101604, -0.046358
-0.124074, 0.830942, 0.518561, 0.012600, 0.247100, -0.642460, 1.012870, 0.126003, -0.014502
-0.118157, 0.837286, 0.516853, 0.012600, 0.247100, -0.642460, 1.017756, 0.119510, -0.014502
-0.110837, 0.855403, 0.498675, 0.018200, 0.258020, -0.637000, 1.042992, 0.111476, 0.004971
-0.120780, 0.855037, 0.464942, 0.026600, 0.253680, -0.630700, 1.072750, 0.123466, 0.039025
-0.091683, 0.861564, 0.427610, 0.037520, 0.255360, -0.626360, 1.110098, 0.095033, 0.080436
